elapsedMillis,actionKeyword,accelerometerAccelerationX,accelerometerAccelerationY,accelerometerAccelerationZ,gyroRotationX,gyroRotationY,gyroRotationZ,magnetometerX,magnetometerY,magnetometerZ,motionYaw,motionRoll,motionPitch,motionRotationRateX,motionRotationRateY,motionRotationRateZ,motionUserAccelerationX,motionUserAccelerationY,motionUserAccelerationZ,motionGravityX,motionGravityY,motionGravityZ,motionMagneticFieldX,motionMagneticFieldY,motionMagneticFieldZ,label
300,walking,0.2727818,0.15284155,10.055838,0.0,0.0,0.0,0.0,0.0,0.0,0.0,0.0,0.0,0.0,0.0,0.0,0.0,0.0,0.0,0.0,0.0,0.0,0.0,0.0,0.0,walking
319,walking,0.27996024,0.1576272,10.00798,-1.5271181E-4,0.0018325418,-9.162709E-4,-31.275002,-8.25,-43.95,108.82936,-1.5544055,-0.87073034,-1.5271181E-4,0.0018325418,-9.162709E-4,0.0,0.0,0.0,0.27240154,0.1531999,9.801669,-31.275002,-8.25,-43.95,walking
343,walking,0.27517462,0.17916259,10.120443,0.0010689828,0.0018325418,3.0542363E-4,-30.900002,-7.8,-43.2,103.85807,-1.5037479,-0.67275435,0.0010689828,0.0018325418,3.0542363E-4,-0.0088967085,-0.020482786,-0.094854355,0.26603636,0.1344968,9.802118,-30.900002,-7.8,-43.2,walking
362,walking,0.29671,0.18873389,9.924232,-1.5271181E-4,-6.1084726E-4,3.0542363E-4,-30.375002,-7.5750003,-42.75,103.85805,-1.5037482,-0.6727547,-1.5271181E-4,-6.1084726E-4,3.0542363E-4,0.015678555,0.024347052,-0.035490036,0.27172536,0.15472312,9.801664,-30.375002,-7.5750003,-42.75,walking
381,walking,0.2440679,0.09302098,9.912268,-1.5271181E-4,0.0030542363,3.0542363E-4,-29.85,-7.3500004,-42.600002,103.85804,-1.5037493,-0.6727572,-1.5271181E-4,0.0030542363,3.0542363E-4,-0.01774007,-0.042502128,-0.059617996,0.26760453,0.14446352,9.801933,-29.85,-7.3500004,-42.600002,walking
400,walking,0.27756742,0.18634106,10.039087,-1.5271181E-4,-6.1084726E-4,3.0542363E-4,-29.550001,-7.9500003,-42.9,103.85803,-1.503749,-0.6727583,-1.5271181E-4,-6.1084726E-4,3.0542363E-4,0.0018263161,0.07421948,0.0018854141,0.26720107,0.14118333,9.801992,-29.550001,-7.9500003,-42.9,walking
419,walking,0.27038896,0.13369897,9.77827,-1.5271181E-4,6.1084726E-4,-9.162709E-4,-29.475,-8.475,-43.95,103.85806,-1.503749,-0.6727613,-1.5271181E-4,6.1084726E-4,-9.162709E-4,-0.0024443865,-0.042969927,-0.05372715,0.2672748,0.15346308,9.8018055,-29.475,-8.475,-43.95,walking
438,walking,0.24885355,0.10737792,10.034302,0.0010689828,0.0018325418,-9.162709E-4,-29.625002,-8.775001,-44.850002,103.8581,-1.5037491,-0.67276514,0.0010689828,0.0018325418,-9.162709E-4,-0.0024443865,-0.042969927,-0.05372715,0.2673485,0.14741197,9.801897,-29.625002,-8.775001,-44.850002,walking
457,walking,0.2847459,0.19591236,9.907482,0.0010689828,0.0018325418,3.0542363E-4,-30.000002,-9.075001,-45.075,103.85814,-1.5037487,-0.6727689,0.0010689828,0.0018325418,3.0542363E-4,0.012331784,0.04360406,-0.050400734,0.26684803,0.1495803,9.801878,-30.000002,-9.075001,-45.075,walking
477,walking,0.25842485,0.11216356,9.950553,-0.0013744063,-0.0030542363,-9.162709E-4,-30.375002,-9.375,-45.15,103.85818,-1.5037487,-0.6727739,-0.0013744063,-0.0030542363,-9.162709E-4,-0.01427561,-0.013284013,-5.2547455E-4,0.26517108,0.1483277,9.801942,-30.375002,-9.375,-45.15,walking
496,walking,0.27038896,0.16719848,9.890733,0.0010689828,6.1084726E-4,3.0542363E-4,-30.6,-9.450001,-44.850002,103.85822,-1.5037478,-0.67277765,0.0010689828,6.1084726E-4,3.0542363E-4,0.006857395,-0.021062762,0.0388422,0.2660542,0.14625281,9.8019495,-30.6,-9.450001,-44.850002,walking
515,walking,0.26081768,0.15284155,9.919446,-1.5271181E-4,-6.1084726E-4,3.0542363E-4,-30.6,-9.675,-45.45,103.85829,-1.5037478,-0.6727822,-1.5271181E-4,-6.1084726E-4,3.0542363E-4,0.0017906427,0.017669946,-0.060934067,0.26540068,0.14777459,9.801944,-30.6,-9.675,-45.45,walking
533,walking,0.2632105,0.12173485,9.94816,0.0010689828,0.0018325418,3.0542363E-4,-30.6,-10.05,-45.375,103.85835,-1.5037478,-0.67278576,0.0010689828,0.0018325418,3.0542363E-4,-0.0074642003,-0.0027711987,0.02404499,0.2648008,0.14622524,9.801984,-30.6,-10.05,-45.375,walking
553,walking,0.2536392,0.16480567,9.921839,0.0010689828,6.1084726E-4,3.0542363E-4,-30.375002,-10.05,-45.45,103.85843,-1.5037473,-0.67278934,0.0010689828,6.1084726E-4,3.0542363E-4,-0.0138326585,0.012894347,-0.035765648,0.26388732,0.14724891,9.801993,-30.375002,-10.05,-45.45,walking
572,walking,0.28235307,0.12891331,9.9553385,-1.5271181E-4,-0.0018325418,3.0542363E-4,-29.925001,-9.900001,-45.9,103.8585,-1.5037475,-0.6727931,-1.5271181E-4,-0.0018325418,3.0542363E-4,0.006239444,2.925694E-4,0.0056591034,0.26433164,0.14730285,9.80198,-29.925001,-9.900001,-45.9,walking
591,walking,0.26081768,0.1480559,9.943375,0.0010689828,0.0018325418,-9.162709E-4,-29.325,-10.5,-46.050003,103.85851,-1.5037479,-0.67279416,0.0010689828,0.0018325418,-9.162709E-4,-7.0369244E-4,-0.012923047,0.009511948,0.2642749,0.14656988,9.801993,-29.325,-10.5,-46.050003,walking
611,walking,0.2656033,0.17198412,9.960124,-1.5271181E-4,-6.1084726E-4,3.0542363E-4,-29.325,-10.35,-46.575,103.85858,-1.5037485,-0.67279637,-1.5271181E-4,-6.1084726E-4,3.0542363E-4,-0.002263993,0.0052317083,0.0056791306,0.263756,0.14758785,9.801991,-29.325,-10.35,-46.575,walking
629,walking,0.26081768,0.1265205,9.94816,-1.5271181E-4,-6.1084726E-4,3.0542363E-4,-29.175001,-10.200001,-46.5,103.858635,-1.503749,-0.6727996,-1.5271181E-4,-6.1084726E-4,3.0542363E-4,-0.004656911,-0.016848698,-0.013102531,0.26373866,0.14781933,9.801988,-29.175001,-10.200001,-46.5,walking
648,walking,0.27756742,0.14327025,9.962517,0.0010689828,-6.1084726E-4,-9.162709E-4,-28.875002,-10.200001,-46.5,103.8587,-1.5037497,-0.6728026,0.0010689828,-6.1084726E-4,-9.162709E-4,0.009191692,-0.005654514,0.0036535263,0.26410434,0.14666723,9.801996,-28.875002,-10.200001,-46.5,walking
667,walking,0.27038896,0.15284155,9.950553,-1.5271181E-4,6.1084726E-4,3.0542363E-4,-29.400002,-10.200001,-46.350002,103.85876,-1.5037509,-0.6728058,-1.5271181E-4,6.1084726E-4,3.0542363E-4,0.0020899475,0.0066551566,-0.0029363632,0.2641795,0.14712851,9.801987,-29.400002,-10.200001,-46.350002,walking
687,walking,0.2632105,0.12891331,9.962517,-1.5271181E-4,6.1084726E-4,3.0542363E-4,-29.325,-10.650001,-45.975002,103.85882,-1.5037521,-0.6728093,-1.5271181E-4,6.1084726E-4,3.0542363E-4,-3.0198693E-4,-0.019625023,-0.01119709,0.26416078,0.14626084,9.802,-29.325,-10.650001,-45.975002,walking
706,walking,0.27756742,0.16959131,9.940982,-1.5271181E-4,6.1084726E-4,3.0542363E-4,-29.400002,-10.8,-45.75,103.85887,-1.5037526,-0.6728111,-1.5271181E-4,6.1084726E-4,3.0542363E-4,0.0030722618,0.017314687,-0.018901825,0.26358184,0.14601845,9.802019,-29.400002,-10.8,-45.75,walking
725,walking,0.25842485,0.1480559,9.9553385,-1.5271181E-4,6.1084726E-4,-9.162709E-4,-29.775002,-10.950001,-45.45,103.85893,-1.5037531,-0.6728139,-1.5271181E-4,6.1084726E-4,-9.162709E-4,0.0030722618,0.017314687,-0.018901825,0.26346347,0.14625794,9.802018,-29.775002,-10.950001,-45.45,walking
744,walking,0.26081768,0.12412767,9.943375,-1.5271181E-4,-6.1084726E-4,3.0542363E-4,-29.550001,-10.650001,-45.45,103.859024,-1.5037526,-0.67281795,-1.5271181E-4,-6.1084726E-4,3.0542363E-4,-0.005631089,-0.011930719,0.009075165,0.26346347,0.14625794,9.802018,-29.550001,-10.650001,-45.45,walking
762,walking,0.26799613,0.17676978,10.005588,-1.5271181E-4,6.1084726E-4,3.0542363E-4,-29.1,-10.5,-45.375,103.85905,-1.5037526,-0.6728192,-1.5271181E-4,6.1084726E-4,3.0542363E-4,-0.0025877357,0.020967856,0.025308609,0.26313084,0.14616565,9.80203,-29.1,-10.5,-45.375,walking
781,walking,0.2656033,0.13130614,9.921839,0.0010689828,6.1084726E-4,3.0542363E-4,-29.025002,-10.35,-45.675003,103.85911,-1.503753,-0.67282295,0.0010689828,6.1084726E-4,3.0542363E-4,-0.002401024,0.0041957945,0.0089941025,0.26295745,0.14634459,9.8020315,-29.025002,-10.35,-45.675003,walking
801,walking,0.27038896,0.1480559,9.8835535,-1.5271181E-4,-6.1084726E-4,3.0542363E-4,-29.025002,-10.5,-46.350002,103.85917,-1.503753,-0.6728266,-1.5271181E-4,-6.1084726E-4,3.0542363E-4,-6.7067146E-4,-0.016054213,-0.0334301,0.26289555,0.14579917,9.802042,-29.025002,-10.5,-46.350002,walking
821,walking,0.25842485,0.15284155,9.974482,0.0010689828,6.1084726E-4,3.0542363E-4,-29.325,-10.575001,-46.050003,103.85922,-1.5037537,-0.67282987,0.0010689828,6.1084726E-4,3.0542363E-4,-0.0034987032,0.004636988,0.037395477,0.26318705,0.14573497,9.802034,-29.325,-10.575001,-46.050003,walking
841,walking,0.26799613,0.16719848,9.938589,-1.5271181E-4,-6.1084726E-4,3.0542363E-4,-29.7,-10.650001,-46.050003,103.85928,-1.503754,-0.6728339,-1.5271181E-4,-6.1084726E-4,3.0542363E-4,5.970597E-4,0.016285777,-0.024223328,0.26296487,0.14593506,9.802037,-29.7,-10.650001,-46.050003,walking
859,walking,0.26081768,0.12891331,9.991231,-1.5271181E-4,-6.1084726E-4,3.0542363E-4,-30.000002,-10.875,-46.050003,103.85933,-1.5037547,-0.67283803,-1.5271181E-4,-6.1084726E-4,3.0542363E-4,-0.005049765,-0.015586466,0.01002121,0.26285225,0.14590585,9.802042,-30.000002,-10.875,-46.050003,walking
877,walking,0.27756742,0.17916259,10.005588,-1.5271181E-4,0.0018325418,3.0542363E-4,-30.225,-10.575001,-45.45,103.8594,-1.5037549,-0.67284065,-1.5271181E-4,0.0018325418,3.0542363E-4,-0.008383721,-0.006494552,-3.528595E-4,0.2625494,0.14568834,9.8020525,-30.225,-10.575001,-45.45,walking
896,walking,0.28953153,0.17198412,9.972089,-1.5271181E-4,-6.1084726E-4,3.0542363E-4,-30.075,-10.275001,-45.600002,103.85947,-1.5037551,-0.6728442,-1.5271181E-4,-6.1084726E-4,3.0542363E-4,0.012120962,0.02946511,0.042787552,0.2628779,0.1460206,9.802039,-30.075,-10.275001,-45.600002,walking
915,walking,0.27038896,0.095413804,9.885947,-1.5271181E-4,6.1084726E-4,3.0542363E-4,-30.000002,-10.05,-45.375,103.85951,-1.5037564,-0.6728489,-1.5271181E-4,6.1084726E-4,3.0542363E-4,9.908378E-4,-0.04573919,-0.034876823,0.2628779,0.1460206,9.802039,-30.000002,-10.05,-45.375,walking
935,walking,0.2632105,0.18873389,10.034302,0.0022906773,6.1084726E-4,3.0542363E-4,-30.000002,-9.450001,-45.075,103.85957,-1.5037576,-0.67285264,0.0022906773,6.1084726E-4,3.0542363E-4,-0.0024873912,0.042224973,0.07138443,0.26303214,0.14476848,9.802053,-30.000002,-9.450001,-45.075,walking
954,walking,0.28235307,0.17437695,9.917053,-0.0013744063,-6.1084726E-4,3.0542363E-4,-29.925001,-9.75,-45.0,103.859634,-1.503759,-0.6728569,-0.0013744063,-6.1084726E-4,3.0542363E-4,0.013163716,0.029446095,-0.026330948,0.26321822,0.14683375,9.802017,-29.925001,-9.75,-45.0,walking
973,walking,0.23928227,0.097806625,9.974482,-1.5271181E-4,6.1084726E-4,3.0542363E-4,-29.625002,-9.6,-45.075,103.85969,-1.5037605,-0.67286235,-1.5271181E-4,6.1084726E-4,3.0542363E-4,-0.023894578,-0.050927386,-0.039212227,0.26261175,0.14534889,9.802055,-29.625002,-9.6,-45.075,walking
992,walking,0.28713873,0.18394823,9.979267,0.0010689828,-6.1084726E-4,3.0542363E-4,-29.400002,-9.75,-45.600002,103.85979,-1.5037618,-0.672868,0.0010689828,-6.1084726E-4,3.0542363E-4,0.0012351573,-0.0058842003,0.030144691,0.26257688,0.14518031,9.802059,-29.400002,-9.75,-45.600002,walking
1012,walking,0.24885355,0.1265205,9.835697,-1.5271181E-4,-0.0018325418,-9.162709E-4,-29.325,-10.5,-45.975002,103.85981,-1.5037621,-0.67287046,-1.5271181E-4,-0.0018325418,-9.162709E-4,-0.0022939742,0.05567558,0.0238657,0.26243815,0.14682852,9.802038,-29.325,-10.5,-45.975002,walking
1031,walking,0.27517462,0.18394823,9.94816,0.0010689828,-6.1084726E-4,3.0542363E-4,-29.325,-10.200001,-46.275,103.85986,-1.5037626,-0.6728741,0.0010689828,-6.1084726E-4,3.0542363E-4,6.4241886E-4,-0.04874172,-0.048365593,0.26252887,0.1455013,9.802056,-29.325,-10.200001,-46.275,walking
1050,walking,0.2656033,0.18634106,9.929018,-1.5271181E-4,-6.1084726E-4,3.0542363E-4,-29.475,-10.35,-46.575,103.859924,-1.5037632,-0.6728771,-1.5271181E-4,-6.1084726E-4,3.0542363E-4,-1.654923E-4,0.037930146,-0.0260458,0.26265955,0.1459107,9.802046,-29.475,-10.35,-46.575,walking
1068,walking,0.24885355,0.11216356,9.931411,-1.5271181E-4,-0.0018325418,-9.162709E-4,-29.475,-10.575001,-46.350002,103.85999,-1.5037638,-0.67288166,-1.5271181E-4,-0.0018325418,-9.162709E-4,-0.011481196,-0.012501895,-0.016998291,0.26235965,0.1456561,9.802058,-29.475,-10.575001,-46.350002,walking
1087,walking,0.25603202,0.1480559,9.952946,0.0010689828,0.0018325418,-9.162709E-4,-29.400002,-10.05,-46.350002,103.86004,-1.503764,-0.6728855,0.0010689828,0.0018325418,-9.162709E-4,1.3157725E-4,-0.024177916,0.02954197,0.26254195,0.14500977,9.802062,-29.400002,-10.05,-46.350002,walking
1107,walking,0.24885355,0.17676978,9.936196,-1.5271181E-4,-6.1084726E-4,3.0542363E-4,-28.875002,-10.35,-46.800003,103.86011,-1.5037636,-0.6728896,-1.5271181E-4,-6.1084726E-4,3.0542363E-4,-0.0013545454,0.04181312,-0.043269157,0.26227143,0.14631595,9.802051,-28.875002,-10.35,-46.800003,walking
1126,walking,0.25603202,0.13609178,9.924232,-1.5271181E-4,6.1084726E-4,3.0542363E-4,-28.875002,-10.275001,-47.100002,103.86016,-1.5037626,-0.672895,-1.5271181E-4,6.1084726E-4,3.0542363E-4,-0.0029312968,0.006175995,0.007507324,0.26229477,0.14651954,9.802047,-28.875002,-10.275001,-47.100002,walking
1145,walking,0.27996024,0.18155542,9.960124,0.0010689828,6.1084726E-4,3.0542363E-4,-28.725,-10.05,-47.175003,103.86022,-1.5037618,-0.67289984,0.0010689828,6.1084726E-4,3.0542363E-4,-0.0029630363,0.026448041,-0.010921478,0.26188093,0.14648402,9.802058,-28.725,-10.05,-47.175003,walking
1163,walking,0.25842485,0.11934203,9.969695,-1.5271181E-4,6.1084726E-4,3.0542363E-4,-28.95,-9.75,-47.175003,103.86028,-1.5037615,-0.6729052,-1.5271181E-4,6.1084726E-4,3.0542363E-4,0.0033071637,0.018608958,0.027920723,0.2619354,0.14693944,9.802051,-28.95,-9.75,-47.175003,walking
1183,walking,0.2656033,0.12412767,9.869197,-1.5271181E-4,-6.1084726E-4,3.0542363E-4,-29.475,-9.450001,-46.65,103.86036,-1.5037618,-0.6729111,-1.5271181E-4,-6.1084726E-4,3.0542363E-4,-0.0051238537,-0.027569637,-0.018025398,0.26178706,0.14616817,9.802066,-29.475,-9.450001,-46.65,walking
1202,walking,0.27517462,0.15284155,9.960124,0.0010689828,-6.1084726E-4,3.0542363E-4,-29.775002,-9.900001,-46.575,103.86043,-1.5037618,-0.6729138,0.0010689828,-6.1084726E-4,3.0542363E-4,-0.00473243,-0.014374584,-0.0569067,0.26161855,0.14576825,9.802075,-29.775002,-9.900001,-46.575,walking
1222,walking,0.26799613,0.14087744,9.828519,-0.0013744063,6.1084726E-4,3.0542363E-4,-29.775002,-10.35,-46.575,103.86046,-1.5037624,-0.67291546,-0.0013744063,6.1084726E-4,3.0542363E-4,0.023213565,0.017134026,0.07072258,0.262301,0.1462303,9.802051,-29.775002,-10.35,-46.575,walking
1241,walking,0.26799613,0.104985096,9.900304,-1.5271181E-4,-6.1084726E-4,-9.162709E-4,-29.775002,-10.5,-46.350002,103.86054,-1.5037638,-0.6729205,-1.5271181E-4,-6.1084726E-4,-9.162709E-4,1.7002225E-4,0.018769488,-0.016166687,0.2622323,0.14651799,9.802049,-29.775002,-10.5,-46.350002,walking
1259,walking,0.28713873,0.16959131,9.9553385,-1.5271181E-4,-6.1084726E-4,3.0542363E-4,-29.625002,-10.650001,-46.350002,103.86057,-1.5037643,-0.67292166,-1.5271181E-4,-6.1084726E-4,3.0542363E-4,0.011118799,0.0072411597,0.015465736,0.2626124,0.14565708,9.802051,-29.625002,-10.650001,-46.350002,walking
1278,walking,0.2536392,0.1480559,9.919446,-1.5271181E-4,0.0018325418,3.0542363E-4,-29.550001,-10.8,-46.275,103.860634,-1.5037651,-0.6729247,-1.5271181E-4,0.0018325418,3.0542363E-4,0.0062736273,0.023511514,-0.008436203,0.26282346,0.14625938,9.802036,-29.550001,-10.8,-46.275,walking
1298,walking,0.27517462,0.13848461,10.043873,-1.5271181E-4,-0.0018325418,-9.162709E-4,-29.775002,-10.575001,-46.050003,103.860695,-1.5037653,-0.67292774,-1.5271181E-4,-0.0018325418,-9.162709E-4,-0.004889697,-0.038433857,-0.045936584,0.2626994,0.14556232,9.802051,-29.775002,-10.575001,-46.050003,walking
1336,walking,0.27517462,0.13848461,10.043873,0.0010689828,6.1084726E-4,3.0542363E-4,-29.775002,-10.575001,-46.050003,103.860695,-1.5037653,-0.67292774,0.0010689828,6.1084726E-4,3.0542363E-4,0.008480161,0.009856537,0.03873253,0.2626994,0.14556232,9.802051,-29.775002,-10.575001,-46.050003,walking
1360,walking,0.27756742,0.13848461,9.969695,0.0010689828,0.0018325418,3.0542363E-4,-30.150002,-10.650001,-46.050003,103.86086,-1.5037692,-0.6729389,0.0010689828,0.0018325418,3.0542363E-4,-0.015288055,-0.041244097,0.005566597,0.2625203,0.14456867,9.80207,-30.150002,-10.650001,-46.050003,walking
1384,walking,0.2416751,0.08823533,9.979267,-0.0013744063,-6.1084726E-4,3.0542363E-4,-30.150002,-10.950001,-46.350002,103.860985,-1.5037712,-0.67294747,-0.0013744063,-6.1084726E-4,3.0542363E-4,-0.0022541583,0.02287668,-0.06185341,0.26245886,0.14619525,9.802047,-30.150002,-10.950001,-46.350002,walking
1402,walking,0.2656033,0.17198412,9.897911,0.0010689828,0.0018325418,3.0542363E-4,-29.925001,-11.175,-46.050003,103.861015,-1.5037715,-0.6729488,0.0010689828,0.0018325418,3.0542363E-4,0.0031418502,0.01265648,-0.024858475,0.26207024,0.14494695,9.802076,-29.925001,-11.175,-46.050003,walking
1422,walking,0.2632105,0.16241284,10.05823,-1.5271181E-4,-6.1084726E-4,3.0542363E-4,-29.625002,-10.8,-45.45,103.86108,-1.5037724,-0.67295295,-1.5271181E-4,-6.1084726E-4,3.0542363E-4,-5.2273273E-5,0.02353248,0.019845963,0.2618679,0.1456413,9.802071,-29.625002,-10.8,-45.45,walking
1441,walking,0.2727818,0.090628155,9.833304,-0.0013744063,-6.1084726E-4,-9.162709E-4,-29.250002,-10.200001,-45.75,103.86113,-1.5037726,-0.67295724,-0.0013744063,-6.1084726E-4,-9.162709E-4,0.0026628077,-0.02162385,-0.06925583,0.26209733,0.14502421,9.802075,-29.250002,-10.200001,-45.75,walking
1461,walking,0.27038896,0.16241284,10.017552,0.0022906773,0.0018325418,3.0542363E-4,-29.325,-10.05,-45.675003,103.86118,-1.5037731,-0.6729601,0.0022906773,0.0018325418,3.0542363E-4,0.007666141,0.034907296,0.030388832,0.26232678,0.14423876,9.802079,-29.325,-10.05,-45.675003,walking
1479,walking,0.27996024,0.18394823,9.931411,-0.0013744063,-0.0018325418,-9.162709E-4,-29.250002,-10.200001,-46.350002,103.861244,-1.5037739,-0.6729638,-0.0013744063,-0.0018325418,-9.162709E-4,0.010305762,0.023600996,-0.014889717,0.2623306,0.14542165,9.802062,-29.250002,-10.200001,-46.350002,walking
1497,walking,0.2632105,0.0738784,9.823733,-1.5271181E-4,-6.1084726E-4,-9.162709E-4,-29.325,-10.200001,-46.95,103.861305,-1.5037749,-0.6729683,-1.5271181E-4,-6.1084726E-4,-9.162709E-4,-0.0033994615,-0.06649317,-0.10398674,0.262751,0.14408681,9.802071,-29.325,-10.200001,-46.95,walking
1517,walking,0.27996024,0.19591236,10.000802,-1.5271181E-4,6.1084726E-4,-9.162709E-4,-29.1,-10.35,-46.65,103.86136,-1.503776,-0.6729711,-1.5271181E-4,6.1084726E-4,-9.162709E-4,0.008556128,0.016184837,0.052052498,0.26295,0.14457057,9.802059,-29.1,-10.35,-46.65,walking
1554,walking,0.28713873,0.13609178,9.823733,-0.0013744063,-6.1084726E-4,3.0542363E-4,-29.250002,-10.200001,-46.350002,103.86142,-1.5037769,-0.6729748,-0.0013744063,-6.1084726E-4,3.0542363E-4,0.012349308,0.05298452,-0.02340889,0.26325196,0.1459399,9.80203,-29.250002,-10.200001,-46.350002,walking
1577,walking,0.2727818,0.17916259,9.940982,-1.5271181E-4,-6.1084726E-4,-9.162709E-4,-29.475,-10.875,-45.675003,103.861534,-1.5037786,-0.67298305,-1.5271181E-4,-6.1084726E-4,-9.162709E-4,-0.003971517,0.004543036,-0.0060100555,0.26324472,0.14473772,9.802049,-29.475,-10.875,-45.675003,walking
1593,walking,0.2632105,0.11216356,9.900304,-1.5271181E-4,-6.1084726E-4,-9.162709E-4,-29.7,-11.25,-45.75,103.8616,-1.5037798,-0.6729886,-1.5271181E-4,-6.1084726E-4,-9.162709E-4,-0.0031718612,-0.029346809,-0.044041634,0.2635947,0.14510752,9.802032,-29.7,-11.25,-45.75,walking
1612,walking,0.2536392,0.13369897,9.969695,0.0022906773,0.0018325418,3.0542363E-4,-29.7,-11.25,-45.675003,103.86166,-1.503781,-0.6729932,0.0022906773,0.0018325418,3.0542363E-4,-0.009487927,-0.03553818,0.013053894,0.2632108,0.14422551,9.802056,-29.7,-11.25,-45.675003,walking
1631,walking,0.27996024,0.19591236,9.9553385,-1.5271181E-4,-6.1084726E-4,3.0542363E-4,-29.625002,-10.8,-45.675003,103.86175,-1.5037818,-0.6729997,-1.5271181E-4,-6.1084726E-4,3.0542363E-4,0.004078448,0.046254396,-0.009227753,0.26315165,0.14572528,9.802035,-29.625002,-10.8,-45.675003,walking
1651,walking,0.2416751,0.090628155,9.945767,-1.5271181E-4,0.0018325418,-9.162709E-4,-29.550001,-10.35,-45.75,103.86177,-1.5037824,-0.6730018,-1.5271181E-4,0.0018325418,-9.162709E-4,-0.01603505,-0.044297174,-0.046792984,0.26322335,0.14564446,9.802034,-29.550001,-10.35,-45.75,walking
1670,walking,0.28235307,0.16480567,9.936196,-1.5271181E-4,6.1084726E-4,3.0542363E-4,-29.400002,-10.35,-45.975002,103.86184,-1.5037826,-0.67300487,-1.5271181E-4,6.1084726E-4,3.0542363E-4,-0.01603505,-0.044297174,-0.046792984,0.2626647,0.14455579,9.802066,-29.400002,-10.35,-45.975002,walking
1688,walking,0.2632105,0.14087744,9.945767,0.0010689828,6.1084726E-4,3.0542363E-4,-29.550001,-10.35,-46.275,103.861885,-1.5037837,-0.6730088,0.0010689828,6.1084726E-4,3.0542363E-4,-8.119345E-4,0.010383606,0.046552658,0.26297417,0.14561518,9.802043,-29.550001,-10.35,-46.275,walking
1708,walking,0.2632105,0.11934203,9.912268,-0.0013744063,-0.0018325418,-9.162709E-4,-29.400002,-10.8,-46.2,103.86195,-1.503784,-0.673013,-0.0013744063,-0.0018325418,-9.162709E-4,-0.002297014,-0.008068815,-0.026247978,0.26316074,0.14525272,9.802042,-29.400002,-10.8,-46.2,walking
1726,walking,0.27517462,0.16002001,9.96491,-1.5271181E-4,-6.1084726E-4,3.0542363E-4,-29.325,-10.950001,-46.350002,103.862,-1.5037843,-0.6730152,-1.5271181E-4,-6.1084726E-4,3.0542363E-4,2.1266937E-4,-0.014630258,-0.020703316,0.26296777,0.14489262,9.8020525,-29.325,-10.950001,-46.350002,walking
1742,walking,0.26799613,0.16959131,9.96491,-0.0013744063,6.1084726E-4,-9.162709E-4,-29.400002,-11.175,-46.050003,103.86207,-1.5037853,-0.67301834,-0.0013744063,6.1084726E-4,-9.162709E-4,0.019623756,0.017322049,0.023932457,0.26358688,0.14531557,9.80203,-29.400002,-11.175,-46.050003,walking
1765,walking,0.27517462,0.1265205,9.972089,-1.5271181E-4,6.1084726E-4,3.0542363E-4,-29.325,-10.950001,-45.75,103.86212,-1.5037864,-0.67302245,-1.5271181E-4,6.1084726E-4,3.0542363E-4,-0.013551921,0.009060502,-0.003276825,0.263139,0.14546569,9.80204,-29.325,-10.950001,-45.75,walking
1784,walking,0.28953153,0.16480567,9.931411,0.0010689828,6.1084726E-4,3.0542363E-4,-29.250002,-11.400001,-46.275,103.86219,-1.5037875,-0.67302513,0.0010689828,6.1084726E-4,3.0542363E-4,0.00492239,-0.015967384,-0.016716003,0.26326755,0.14500633,9.802044,-29.250002,-11.400001,-46.275,walking
1803,walking,0.2632105,0.14327025,9.952946,-1.5271181E-4,-6.1084726E-4,-9.162709E-4,-29.400002,-11.775001,-46.575,103.862236,-1.5037886,-0.6730284,-1.5271181E-4,-6.1084726E-4,-9.162709E-4,0.002160132,0.018612921,-0.010416985,0.2632619,0.14571896,9.802032,-29.400002,-11.775001,-46.575,walking
1822,walking,0.25124636,0.13848461,9.94816,-1.5271181E-4,6.1084726E-4,3.0542363E-4,-29.400002,-11.55,-46.95,103.86232,-1.5037891,-0.67303413,-1.5271181E-4,6.1084726E-4,3.0542363E-4,-0.008302301,-0.0062223077,8.4400177E-4,0.26307237,0.14551573,9.802041,-29.400002,-11.55,-46.95,walking
1843,walking,0.27996024,0.17916259,9.9553385,-1.5271181E-4,6.1084726E-4,3.0542363E-4,-29.475,-11.400001,-47.4,103.862366,-1.5037892,-0.67303526,-1.5271181E-4,6.1084726E-4,3.0542363E-4,0.0074106157,-0.020729974,-0.005915642,0.26319298,0.14492352,9.802047,-29.475,-11.400001,-47.4,walking
1865,walking,0.27517462,0.15044872,9.986445,-1.5271181E-4,6.1084726E-4,-9.162709E-4,-29.400002,-11.25,-46.95,103.86241,-1.5037899,-0.6730374,-1.5271181E-4,6.1084726E-4,-9.162709E-4,0.009666324,-0.0049387068,0.00552845,0.2633285,0.14561298,9.802032,-29.400002,-11.25,-46.95,walking
1881,walking,0.25842485,0.11455639,9.893126,-1.5271181E-4,6.1084726E-4,3.0542363E-4,-29.400002,-11.1,-46.875,103.86248,-1.5037916,-0.67304045,-1.5271181E-4,6.1084726E-4,3.0542363E-4,0.009666324,-0.0049387068,0.00552845,0.26330268,0.14453657,9.80205,-29.400002,-11.1,-46.875,walking
1898,walking,0.2727818,0.15284155,10.000802,-1.5271181E-4,6.1084726E-4,-9.162709E-4,-29.550001,-11.475,-46.575,103.862526,-1.5037923,-0.6730419,-1.5271181E-4,6.1084726E-4,-9.162709E-4,0.004360318,6.6405535E-4,0.03775978,0.26341042,0.14440306,9.802049,-29.550001,-11.475,-46.575,walking
1917,walking,0.25842485,0.16002001,9.924232,-0.0013744063,-6.1084726E-4,3.0542363E-4,-29.475,-11.55,-46.050003,103.862595,-1.5037931,-0.67304456,-0.0013744063,-6.1084726E-4,3.0542363E-4,-7.350147E-4,0.020965233,0.0074014664,0.26329964,0.14493358,9.802043,-29.475,-11.55,-46.050003,walking
1937,walking,0.25842485,0.13848461,9.96491,-1.5271181E-4,-6.1084726E-4,3.0542363E-4,-29.400002,-11.25,-46.275,103.862656,-1.5037935,-0.6730478,-1.5271181E-4,-6.1084726E-4,3.0542363E-4,0.010452151,0.0076684654,0.019041061,0.2630387,0.14358297,9.80207,-29.400002,-11.25,-46.275,walking
1955,walking,0.29192436,0.1576272,9.952946,-0.0013744063,-0.0018325418,3.0542363E-4,-29.775002,-11.175,-46.050003,103.86273,-1.5037932,-0.67305213,-0.0013744063,-0.0018325418,3.0542363E-4,0.0055193603,0.008049965,0.013063431,0.26311028,0.14389935,9.802064,-29.775002,-11.175,-46.050003,walking
1975,walking,0.2847459,0.14087744,9.91466,0.0010689828,0.0030542363,-9.162709E-4,-29.85,-11.1,-45.975002,103.86277,-1.5037936,-0.673054,0.0010689828,0.0030542363,-9.162709E-4,0.0055193603,0.008049965,0.013063431,0.26342252,0.14393312,9.802055,-29.85,-11.1,-45.975002,walking
1994,walking,0.28235307,0.16480567,10.012766,-1.5271181E-4,0.0030542363,3.0542363E-4,-29.550001,-10.950001,-46.350002,103.86283,-1.5037942,-0.6730568,-1.5271181E-4,0.0030542363,3.0542363E-4,0.011261165,0.009317666,0.042796135,0.26383376,0.14410384,9.802041,-29.550001,-10.950001,-46.350002,walking
2013,walking,0.25842485,0.13848461,9.895518,0.0010689828,6.1084726E-4,3.0542363E-4,-29.775002,-11.175,-46.800003,103.86288,-1.5037948,-0.67306,0.0010689828,6.1084726E-4,3.0542363E-4,-0.005389124,-0.005184233,-0.032304764,0.26353288,0.14394167,9.802052,-29.775002,-11.175,-46.800003,walking
2033,walking,0.2656033,0.1576272,9.988838,0.0010689828,6.1084726E-4,3.0542363E-4,-29.7,-11.175,-46.65,103.862976,-1.5037947,-0.6730649,0.0010689828,6.1084726E-4,3.0542363E-4,-0.0016630888,0.0130203515,0.013560295,0.2633943,0.14444415,9.802048,-29.7,-11.175,-46.65,walking
2052,walking,0.2632105,0.1480559,9.938589,-1.5271181E-4,-6.1084726E-4,-9.162709E-4,-29.775002,-10.950001,-46.875,103.86299,-1.5037949,-0.67306715,-1.5271181E-4,-6.1084726E-4,-9.162709E-4,0.0062620044,0.010760665,-0.015613556,0.263279,0.14467084,9.802048,-29.775002,-10.950001,-46.875,walking
2071,walking,0.25842485,0.11934203,9.952946,-1.5271181E-4,-6.1084726E-4,3.0542363E-4,-30.150002,-11.175,-46.575,103.86307,-1.5037949,-0.67307043,-1.5271181E-4,-6.1084726E-4,3.0542363E-4,-0.014086753,-0.0050913543,-0.0029697418,0.263279,0.14467084,9.802048,-30.150002,-11.175,-46.575,walking
2090,walking,0.28713873,0.200698,9.979267,0.0010689828,0.0018325418,3.0542363E-4,-30.225,-10.950001,-46.5,103.86311,-1.5037954,-0.673073,0.0010689828,0.0018325418,3.0542363E-4,-0.0044026077,-0.0017891824,0.029356956,0.26320946,0.14440303,9.802053,-30.225,-10.950001,-46.5,walking
2108,walking,0.2656033,0.1576272,9.881161,-0.0013744063,6.1084726E-4,-9.162709E-4,-30.150002,-10.875,-46.2,103.86318,-1.5037957,-0.6730765,-0.0013744063,6.1084726E-4,-9.162709E-4,0.007786989,0.029164955,-0.02407074,0.26343578,0.14525093,9.802035,-30.150002,-10.875,-46.2,walking
2128,walking,0.2727818,0.11455639,10.010373,-1.5271181E-4,-6.1084726E-4,3.0542363E-4,-30.075,-10.950001,-46.350002,103.863235,-1.5037963,-0.6730808,-1.5271181E-4,-6.1084726E-4,3.0542363E-4,0.0036266744,-0.035313472,-0.005302429,0.26340976,0.14412239,9.8020525,-30.075,-10.950001,-46.350002,walking
2147,walking,0.2632105,0.18394823,9.952946,0.0010689828,6.1084726E-4,-9.162709E-4,-30.075,-10.950001,-46.2,103.8633,-1.5037969,-0.67308414,0.0010689828,6.1084726E-4,-9.162709E-4,-0.007958531,0.01878202,0.0062761307,0.26340976,0.14412239,9.8020525,-30.075,-10.950001,-46.2,walking
2166,walking,0.27038896,0.11455639,9.962517,-1.5271181E-4,-6.1084726E-4,-9.162709E-4,-30.000002,-11.1,-46.050003,103.863365,-1.5037974,-0.6730893,-1.5271181E-4,-6.1084726E-4,-9.162709E-4,-0.007958531,0.01878202,0.0062761307,0.26310378,0.14467533,9.8020525,-30.000002,-11.1,-46.050003,walking
2185,walking,0.27756742,0.14087744,9.974482,-0.0013744063,6.1084726E-4,-9.162709E-4,-29.85,-11.400001,-46.050003,103.863434,-1.503798,-0.67309517,-0.0013744063,6.1084726E-4,-9.162709E-4,0.010030627,-0.006195739,0.025393486,0.26329905,0.14350876,9.802065,-29.85,-11.400001,-46.050003,walking
2204,walking,0.26081768,0.16959131,9.967302,0.0010689828,-6.1084726E-4,-9.162709E-4,-29.925001,-11.475,-45.975002,103.86347,-1.5037985,-0.673097,0.0010689828,-6.1084726E-4,-9.162709E-4,-0.012284845,0.015560165,-0.01365757,0.26301083,0.14409393,9.802064,-29.925001,-11.475,-45.975002,walking
2224,walking,0.27756742,0.14087744,9.957731,-1.5271181E-4,6.1084726E-4,3.0542363E-4,-30.075,-11.55,-46.050003,103.86356,-1.5037986,-0.67310417,-1.5271181E-4,6.1084726E-4,3.0542363E-4,-0.0010541975,0.014492229,0.015975952,0.26302156,0.1444436,9.802058,-30.075,-11.55,-46.050003,walking
2242,walking,0.2536392,0.13609178,9.945767,0.0010689828,6.1084726E-4,-9.162709E-4,-29.85,-11.400001,-46.050003,103.86362,-1.503799,-0.67310756,0.0010689828,6.1084726E-4,-9.162709E-4,0.0057864785,-0.016833916,0.002202034,0.2632791,0.14395322,9.802058,-29.85,-11.400001,-46.050003,walking
2262,walking,0.27517462,0.15523437,9.933804,-1.5271181E-4,-0.0018325418,-9.162709E-4,-29.925001,-11.1,-46.350002,103.863686,-1.5037996,-0.6731118,-1.5271181E-4,-0.0018325418,-9.162709E-4,-0.0024249852,0.011363432,-0.011787415,0.26313737,0.1444229,9.802055,-29.925001,-11.1,-46.350002,walking
2281,walking,0.2656033,0.16002001,9.921839,-1.5271181E-4,6.1084726E-4,3.0542363E-4,-29.7,-11.1,-46.275,103.8637,-1.5038,-0.6731134,-1.5271181E-4,6.1084726E-4,3.0542363E-4,0.0054700077,-0.0014136434,-0.007153511,0.26352406,0.14435756,9.802046,-29.7,-11.1,-46.275,walking
2300,walking,0.2847459,0.16959131,9.943375,-1.5271181E-4,6.1084726E-4,3.0542363E-4,-29.7,-10.950001,-46.350002,103.86377,-1.5038003,-0.6731169,-1.5271181E-4,6.1084726E-4,3.0542363E-4,0.011369824,0.019688323,-0.012501717,0.2634108,0.14472263,9.802043,-29.7,-10.950001,-46.350002,walking
2336,walking,0.27038896,0.14566308,9.962517,-1.5271181E-4,6.1084726E-4,3.0542363E-4,-29.7,-10.950001,-46.350002,103.86379,-1.5038007,-0.67311925,-1.5271181E-4,6.1084726E-4,3.0542363E-4,0.011369824,0.019688323,-0.012501717,0.2634108,0.14472263,9.802043,-29.7,-10.950001,-46.350002,walking
2356,walking,0.26081768,0.15523437,9.926624,0.0010689828,0.0018325418,3.0542363E-4,-29.625002,-10.5,-45.675003,103.86391,-1.5038021,-0.6731249,0.0010689828,0.0018325418,3.0542363E-4,7.6520443E-4,0.008156523,-0.015506744,0.2631217,0.144268,9.802058,-29.625002,-10.5,-45.675003,walking
2376,walking,0.25842485,0.12173485,9.94816,-1.5271181E-4,6.1084726E-4,-9.162709E-4,-29.925001,-10.650001,-45.675003,103.864006,-1.5038034,-0.67313147,-1.5271181E-4,6.1084726E-4,-9.162709E-4,0.0067562163,0.008411914,-0.0036306381,0.26348683,0.14446442,9.802045,-29.925001,-10.650001,-45.675003,walking
2395,walking,0.2632105,0.16002001,9.94816,-1.5271181E-4,-6.1084726E-4,3.0542363E-4,-29.925001,-10.650001,-45.75,103.86406,-1.503804,-0.67313564,-1.5271181E-4,-6.1084726E-4,3.0542363E-4,-0.006767988,0.010061726,-0.0031471252,0.26303467,0.14412422,9.802062,-29.925001,-10.650001,-45.75,walking
2414,walking,0.2727818,0.11694921,9.907482,-1.5271181E-4,-6.1084726E-4,3.0542363E-4,-29.925001,-11.175,-46.350002,103.86412,-1.503804,-0.6731408,-1.5271181E-4,-6.1084726E-4,3.0542363E-4,0.0017508268,0.015757188,0.0055065155,0.26318565,0.14451218,9.8020525,-29.925001,-11.175,-46.350002,walking
2433,walking,0.26799613,0.14566308,9.979267,0.0010689828,-6.1084726E-4,-9.162709E-4,-29.7,-11.175,-46.575,103.86417,-1.5038048,-0.673145,0.0010689828,-6.1084726E-4,-9.162709E-4,0.0046097934,-0.027995147,-0.03665352,0.26344442,0.1437545,9.802057,-29.7,-11.175,-46.575,walking
2452,walking,0.27996024,0.19830517,9.993624,-1.5271181E-4,-6.1084726E-4,-9.162709E-4,-29.7,-10.875,-46.65,103.864265,-1.5038058,-0.67315006,-1.5271181E-4,-6.1084726E-4,-9.162709E-4,-3.2183528E-4,-0.0046063215,0.023522377,0.26337826,0.14377853,9.802058,-29.7,-10.875,-46.65,walking
2472,walking,0.2727818,0.12173485,9.988838,-1.5271181E-4,6.1084726E-4,3.0542363E-4,-29.475,-10.875,-46.95,103.86429,-1.5038058,-0.67315215,-1.5271181E-4,6.1084726E-4,3.0542363E-4,0.0039577484,0.032297194,0.0073423386,0.26358566,0.14461495,9.80204,-29.475,-10.875,-46.95,walking
2491,walking,0.26081768,0.13609178,9.952946,0.0010689828,6.1084726E-4,3.0542363E-4,-29.325,-10.5,-46.65,103.864365,-1.503806,-0.6731554,0.0010689828,6.1084726E-4,3.0542363E-4,-0.003877908,-0.012634218,0.011957169,0.26325193,0.14377046,9.802062,-29.325,-10.5,-46.65,walking
2509,walking,0.2727818,0.16241284,9.933804,-1.5271181E-4,-6.1084726E-4,3.0542363E-4,-29.325,-10.5,-46.350002,103.86441,-1.5038058,-0.6731579,-1.5271181E-4,-6.1084726E-4,3.0542363E-4,0.0056319535,0.024467945,0.0067358017,0.26331493,0.1445846,9.802049,-29.325,-10.5,-46.350002,walking
2528,walking,0.27038896,0.13369897,9.984053,-1.5271181E-4,-6.1084726E-4,3.0542363E-4,-29.325,-10.950001,-46.2,103.86447,-1.503806,-0.6731612,-1.5271181E-4,-6.1084726E-4,3.0542363E-4,-0.009849876,-0.022653371,-0.034535408,0.26318234,0.14395188,9.802062,-29.325,-10.950001,-46.2,walking
2544,walking,0.27517462,0.18873389,9.940982,0.0010689828,6.1084726E-4,-9.162709E-4,-29.250002,-10.950001,-46.2,103.864525,-1.5038065,-0.6731631,0.0010689828,6.1084726E-4,-9.162709E-4,0.0021795034,-0.018681228,0.035298347,0.2631621,0.14340283,9.80207,-29.250002,-10.950001,-46.2,walking
2561,walking,0.26081768,0.12173485,9.912268,-1.5271181E-4,-6.1084726E-4,3.0542363E-4,-29.325,-10.950001,-46.350002,103.864586,-1.5038074,-0.6731662,-1.5271181E-4,-6.1084726E-4,3.0542363E-4,0.0068654716,0.043198273,-0.0012588501,0.2632612,0.14463355,9.802049,-29.325,-10.950001,-46.350002,walking
2585,walking,0.27517462,0.12173485,9.962517,0.0010689828,6.1084726E-4,3.0542363E-4,-29.625002,-10.950001,-46.050003,103.86465,-1.503808,-0.67316854,0.0010689828,6.1084726E-4,3.0542363E-4,0.004933715,-0.025878891,0.012022972,0.26341847,0.14320026,9.802065,-29.625002,-10.950001,-46.050003,walking
2604,walking,0.25603202,0.19591236,10.005588,-1.5271181E-4,-6.1084726E-4,3.0542363E-4,-29.625002,-9.975,-45.45,103.8647,-1.5038091,-0.67317015,-1.5271181E-4,-6.1084726E-4,3.0542363E-4,-0.002206564,0.036292568,0.03143406,0.26325202,0.14422089,9.802055,-29.625002,-9.975,-45.45,walking
2624,walking,0.2632105,0.11934203,9.926624,-0.0013744063,-6.1084726E-4,3.0542363E-4,-29.625002,-9.150001,-44.550003,103.86476,-1.5038102,-0.6731736,-0.0013744063,-6.1084726E-4,3.0542363E-4,-0.016481519,-0.065753244,-0.04400921,0.2634106,0.14452879,9.802047,-29.625002,-9.150001,-44.550003,walking
2642,walking,0.27038896,0.1265205,9.979267,0.0010689828,6.1084726E-4,3.0542363E-4,-29.775002,-8.400001,-43.95,103.86482,-1.5038108,-0.673176,0.0010689828,6.1084726E-4,3.0542363E-4,8.2981586E-4,0.02055636,0.024607658,0.2631064,0.14254491,9.802084,-29.775002,-8.400001,-43.95,walking
2662,walking,0.28235307,0.20309082,9.967302,-0.0013744063,-6.1084726E-4,3.0542363E-4,-29.7,-7.8,-43.350002,103.86491,-1.5038118,-0.67317927,-0.0013744063,-6.1084726E-4,3.0542363E-4,8.2981586E-4,0.02055636,0.024607658,0.26302698,0.14324655,9.802075,-29.7,-7.8,-43.350002,walking
2681,walking,0.26799613,0.08584251,9.912268,-1.5271181E-4,6.1084726E-4,3.0542363E-4,-29.85,-7.65,-43.2,103.86493,-1.503812,-0.67318094,-1.5271181E-4,6.1084726E-4,3.0542363E-4,-1.887083E-4,-0.0536305,-0.03497696,0.26343423,0.14254303,9.802075,-29.85,-7.65,-43.2,walking
2700,walking,0.28235307,0.16002001,9.991231,-1.5271181E-4,6.1084726E-4,-9.162709E-4,-30.075,-7.8750005,-43.350002,103.865,-1.5038123,-0.673183,-1.5271181E-4,6.1084726E-4,-9.162709E-4,0.008231282,-0.007582113,0.026109695,0.26355368,0.1424074,9.8020735,-30.075,-7.8750005,-43.350002,walking
2719,walking,0.2727818,0.16719848,9.907482,-1.5271181E-4,-6.1084726E-4,3.0542363E-4,-30.075,-8.1,-43.575,103.86507,-1.5038129,-0.673186,-1.5271181E-4,-6.1084726E-4,3.0542363E-4,2.7355552E-4,0.045814335,0.0081243515,0.26346886,0.14360937,9.802058,-30.075,-8.1,-43.575,walking
2738,walking,0.2656033,0.13609178,9.960124,-1.5271181E-4,-6.1084726E-4,3.0542363E-4,-30.150002,-8.175,-43.95,103.86511,-1.5038136,-0.6731898,-1.5271181E-4,-6.1084726E-4,3.0542363E-4,-0.008041531,-0.02774711,-0.00843811,0.26335666,0.14282875,9.802073,-30.150002,-8.175,-43.95,walking
2757,walking,0.28235307,0.18155542,9.969695,0.0010689828,6.1084726E-4,3.0542363E-4,-29.85,-8.1,-44.4,103.86517,-1.5038141,-0.6731922,0.0010689828,6.1084726E-4,3.0542363E-4,0.012018472,0.0395346,0.017624855,0.2632985,0.14239629,9.802081,-29.85,-8.1,-44.4,walking
2776,walking,0.26799613,0.13609178,9.921839,-1.5271181E-4,-6.1084726E-4,3.0542363E-4,-29.925001,-7.8,-44.25,103.86523,-1.5038148,-0.67319596,-1.5271181E-4,-6.1084726E-4,3.0542363E-4,5.404949E-4,-0.00818713,-0.025200844,0.2637239,0.14331001,9.802055,-29.925001,-7.8,-44.25,walking
2796,walking,0.24885355,0.104985096,9.952946,0.0010689828,-6.1084726E-4,3.0542363E-4,-29.775002,-7.8,-44.550003,103.86532,-1.5038158,-0.6731996,0.0010689828,-6.1084726E-4,3.0542363E-4,-0.008723229,-0.043407165,0.009063721,0.26359034,0.1422258,9.802074,-29.775002,-7.8,-44.550003,walking
2815,walking,0.27756742,0.19830517,9.952946,-1.5271181E-4,-6.1084726E-4,3.0542363E-4,-29.625002,-7.8750005,-44.7,103.86536,-1.503816,-0.67320096,-1.5271181E-4,-6.1084726E-4,3.0542363E-4,0.0022049248,0.03534454,0.0032806396,0.26356238,0.14333665,9.802059,-29.625002,-7.8750005,-44.7,walking
2835,walking,0.2632105,0.12173485,9.936196,-1.5271181E-4,-6.1084726E-4,3.0542363E-4,-29.775002,-7.9500003,-44.850002,103.86543,-1.503817,-0.6732063,-1.5271181E-4,-6.1084726E-4,3.0542363E-4,0.0050391555,0.023061037,0.0114860535,0.2637976,0.14391933,9.802045,-29.775002,-7.9500003,-44.850002,walking
2853,walking,0.2632105,0.14327025,9.943375,-1.5271181E-4,-6.1084726E-4,-9.162709E-4,-29.625002,-8.55,-45.45,103.86546,-1.5038174,-0.6732077,-1.5271181E-4,-6.1084726E-4,-9.162709E-4,5.130768E-4,-0.033204444,9.422302E-4,0.26378733,0.1429877,9.802058,-29.625002,-8.55,-45.45,walking
2873,walking,0.27756742,0.1265205,9.938589,-1.5271181E-4,6.1084726E-4,3.0542363E-4,-29.775002,-8.775001,-45.15,103.86552,-1.5038174,-0.6732112,-1.5271181E-4,6.1084726E-4,3.0542363E-4,0.0024427772,0.009289026,-0.004899025,0.26389202,0.14321034,9.8020525,-29.775002,-8.775001,-45.15,walking
2891,walking,0.26799613,0.13609178,9.936196,0.0010689828,6.1084726E-4,3.0542363E-4,-29.7,-9.075001,-45.600002,103.86558,-1.5038186,-0.6732152,0.0010689828,6.1084726E-4,3.0542363E-4,-7.8096986E-4,-0.02250816,0.013788223,0.2641903,0.14349629,9.80204,-29.7,-9.075001,-45.600002,walking
2910,walking,0.27996024,0.16719848,9.938589,0.0010689828,6.1084726E-4,3.0542363E-4,-29.175001,-9.0,-45.075,103.86564,-1.5038192,-0.6732177,0.0010689828,6.1084726E-4,3.0542363E-4,0.004542291,0.0025142431,-0.011372566,0.26431108,0.14372821,9.802034,-29.175001,-9.0,-45.075,walking
2929,walking,0.27517462,0.15523437,9.945767,0.0010689828,6.1084726E-4,-9.162709E-4,-29.400002,-9.375,-44.850002,103.86569,-1.5038204,-0.673221,0.0010689828,6.1084726E-4,-9.162709E-4,-3.2773614E-4,-0.023184001,-0.0046281815,0.2645823,0.14459187,9.802013,-29.400002,-9.375,-44.850002,walking
2948,walking,0.27756742,0.1576272,9.940982,-1.5271181E-4,-6.1084726E-4,3.0542363E-4,-29.550001,-9.0,-45.0,103.86575,-1.503822,-0.67322516,-1.5271181E-4,-6.1084726E-4,3.0542363E-4,-3.2773614E-4,-0.023184001,-0.0046281815,0.2644905,0.14412968,9.802023,-29.550001,-9.0,-45.0,walking
2968,walking,0.26799613,0.16002001,9.960124,0.0010689828,6.1084726E-4,-9.162709E-4,-29.475,-8.775001,-44.775,103.865814,-1.5038227,-0.6732288,0.0010689828,6.1084726E-4,-9.162709E-4,1.7625093E-4,0.012640655,0.00996685,0.26450828,0.14429717,9.802021,-29.475,-8.775001,-44.775,walking
2987,walking,0.25603202,0.12412767,9.9553385,-1.5271181E-4,-6.1084726E-4,3.0542363E-4,-29.85,-8.700001,-45.075,103.865875,-1.5038241,-0.6732335,-1.5271181E-4,-6.1084726E-4,3.0542363E-4,-0.002984345,-0.009950742,-0.013723373,0.26447517,0.14447972,9.802019,-29.85,-8.700001,-45.075,walking
3005,walking,0.27517462,0.17198412,9.967302,0.0010689828,-6.1084726E-4,3.0542363E-4,-29.625002,-8.55,-45.075,103.86592,-1.5038247,-0.6732365,0.0010689828,-6.1084726E-4,3.0542363E-4,-0.009854734,-0.011449799,-0.0037488937,0.26421386,0.14433162,9.802029,-29.625002,-8.55,-45.075,walking
3025,walking,0.27038896,0.1576272,9.950553,0.0010689828,6.1084726E-4,-9.162709E-4,-29.175001,-8.55,-45.0,103.866,-1.5038251,-0.67324024,0.0010689828,6.1084726E-4,-9.162709E-4,0.0063999295,0.02304861,0.016433716,0.26429012,0.14493759,9.802017,-29.175001,-8.55,-45.0,walking
3044,walking,0.25603202,0.11934203,9.933804,-1.5271181E-4,-6.1084726E-4,3.0542363E-4,-29.1,-8.55,-45.0,103.86607,-1.5038259,-0.6732463,-1.5271181E-4,-6.1084726E-4,3.0542363E-4,-0.0071355104,8.8346004E-4,-0.00757885,0.26401883,0.14496736,9.802023,-29.1,-8.55,-45.0,walking
3063,walking,0.2656033,0.1576272,9.972089,-1.5271181E-4,6.1084726E-4,3.0542363E-4,-29.400002,-8.55,-45.0,103.866135,-1.5038259,-0.6732493,-1.5271181E-4,6.1084726E-4,3.0542363E-4,-0.008246213,-0.01917252,-0.00976944,0.26391155,0.14451146,9.802032,-29.400002,-8.55,-45.0,walking
3082,walking,0.27038896,0.16959131,9.952946,-1.5271181E-4,-6.1084726E-4,3.0542363E-4,-29.7,-8.475,-45.15,103.86619,-1.5038264,-0.67325395,-1.5271181E-4,-6.1084726E-4,3.0542363E-4,7.007718E-4,0.020240992,1.335144E-5,0.2638871,0.14527279,9.802022,-29.7,-8.475,-45.15,walking
3100,walking,0.2656033,0.14566308,9.929018,0.0010689828,6.1084726E-4,3.0542363E-4,-29.7,-8.700001,-45.300003,103.86622,-1.5038267,-0.6732558,0.0010689828,6.1084726E-4,3.0542363E-4,0.0050264,-0.011195824,-0.0053215027,0.26403612,0.14503603,9.802022,-29.7,-8.700001,-45.300003,walking
3121,walking,0.25842485,0.16241284,9.962517,-1.5271181E-4,-6.1084726E-4,3.0542363E-4,-29.775002,-8.85,-44.850002,103.86629,-1.5038275,-0.67325914,-1.5271181E-4,-6.1084726E-4,3.0542363E-4,-0.003656894,0.0015277117,-0.012746811,0.26369688,0.1454623,9.802025,-29.775002,-8.85,-44.850002,walking
3140,walking,0.27996024,0.1480559,9.962517,0.0010689828,6.1084726E-4,3.0542363E-4,-29.475,-9.075001,-45.075,103.86633,-1.5038275,-0.6732633,0.0010689828,6.1084726E-4,3.0542363E-4,-0.011176974,0.010680318,-0.0062065125,0.26369688,0.1454623,9.802025,-29.475,-9.075001,-45.075,walking
3158,walking,0.2632105,0.11455639,9.936196,0.0010689828,6.1084726E-4,3.0542363E-4,-29.1,-9.375,-45.15,103.866394,-1.5038279,-0.6732671,0.0010689828,6.1084726E-4,3.0542363E-4,6.993413E-4,-0.0022257566,-0.004839897,0.26372296,0.14556067,9.802023,-29.1,-9.375,-45.15,walking
3177,walking,0.27038896,0.17437695,9.936196,0.0010689828,6.1084726E-4,-9.162709E-4,-29.325,-9.075001,-45.0,103.866455,-1.5038275,-0.6732695,0.0010689828,6.1084726E-4,-9.162709E-4,0.001188457,0.021987677,-0.009227753,0.26341859,0.1453515,9.802034,-29.325,-9.075001,-45.0,walking
3196,walking,0.27038896,0.14327025,9.931411,-1.5271181E-4,6.1084726E-4,3.0542363E-4,-29.400002,-8.85,-45.15,103.86651,-1.5038273,-0.67327267,-1.5271181E-4,6.1084726E-4,3.0542363E-4,0.0070224106,0.009768859,0.002313614,0.2636296,0.14566588,9.802024,-29.400002,-8.85,-45.15,walking
3216,walking,0.25842485,0.11934203,9.909875,-1.5271181E-4,6.1084726E-4,3.0542363E-4,-29.475,-8.775001,-45.300003,103.866585,-1.5038284,-0.67327577,-1.5271181E-4,6.1084726E-4,3.0542363E-4,-0.00653854,-6.39081E-4,0.017764091,0.263463,0.14456038,9.802044,-29.475,-8.775001,-45.300003,walking
3235,walking,0.27517462,0.18155542,9.962517,0.0010689828,6.1084726E-4,-9.162709E-4,-29.625002,-8.55,-45.375,103.86667,-1.503829,-0.6732804,0.0010689828,6.1084726E-4,-9.162709E-4,-0.00653854,-6.39081E-4,0.017764091,0.26336762,0.14450103,9.802049,-29.625002,-8.55,-45.375,walking
3254,walking,0.2632105,0.11934203,9.936196,-0.0013744063,-0.0018325418,3.0542363E-4,-29.550001,-8.700001,-45.45,103.86669,-1.5038295,-0.67328256,-0.0013744063,-0.0018325418,3.0542363E-4,-0.004330963,-0.02885183,-0.008261681,0.2636337,0.1450365,9.802032,-29.550001,-8.700001,-45.45,walking
3273,walking,0.2632105,0.12412767,9.917053,0.0010689828,-6.1084726E-4,3.0542363E-4,-29.625002,-8.775001,-45.45,103.86675,-1.5038307,-0.6732851,0.0010689828,-6.1084726E-4,3.0542363E-4,-0.0041327477,-0.021932289,-0.028636932,0.263541,0.14347237,9.802058,-29.625002,-8.775001,-45.45,walking
3292,walking,0.2656033,0.18394823,9.979267,-1.5271181E-4,6.1084726E-4,-9.162709E-4,-29.550001,-8.775001,-45.675003,103.86681,-1.5038311,-0.67328715,-1.5271181E-4,6.1084726E-4,-9.162709E-4,0.0025870502,0.027830407,0.01857853,0.2635817,0.14437592,9.802044,-29.550001,-8.775001,-45.675003,walking
3311,walking,0.26081768,0.12173485,9.938589,-1.5271181E-4,-0.0018325418,-9.162709E-4,-29.400002,-8.775001,-45.675003,103.86689,-1.503832,-0.6732923,-1.5271181E-4,-0.0018325418,-9.162709E-4,-0.0016187727,-0.0015601814,0.0041389465,0.2635674,0.14430222,9.802046,-29.400002,-8.775001,-45.675003,walking
3353,walking,0.26081768,0.12173485,9.938589,-1.5271181E-4,-0.0018325418,-9.162709E-4,-29.400002,-8.775001,-45.675003,103.86689,-1.503832,-0.6732923,-1.5271181E-4,-0.0018325418,-9.162709E-4,5.8192015E-4,-0.019564614,-0.052490234,0.2635674,0.14430222,9.802046,-29.400002,-8.775001,-45.675003,walking
3386,walking,0.2656033,0.15044872,9.962517,-1.5271181E-4,6.1084726E-4,3.0542363E-4,-29.550001,-8.85,-45.975002,103.86701,-1.503833,-0.6732994,-1.5271181E-4,6.1084726E-4,3.0542363E-4,0.0046403706,0.008534282,0.017414093,0.26348403,0.14456262,9.802044,-29.550001,-8.85,-45.975002,walking
3406,walking,0.24646074,0.16480567,9.940982,-0.0013744063,-6.1084726E-4,-9.162709E-4,-29.400002,-8.700001,-45.675003,103.86717,-1.5038332,-0.6733065,-0.0013744063,-6.1084726E-4,-9.162709E-4,-0.009668857,0.010813609,0.015148163,0.26288858,0.14436942,9.802063,-29.400002,-8.700001,-45.675003,walking
3426,walking,0.28713873,0.1265205,9.933804,0.0010689828,6.1084726E-4,3.0542363E-4,-29.475,-8.700001,-45.45,103.86721,-1.5038326,-0.6733107,0.0010689828,6.1084726E-4,3.0542363E-4,0.013150066,7.8327954E-4,-0.014992714,0.26335928,0.14418378,9.8020525,-29.475,-8.700001,-45.45,walking
3445,walking,0.27756742,0.16002001,9.962517,0.0010689828,6.1084726E-4,3.0542363E-4,-29.400002,-9.150001,-45.15,103.86731,-1.5038328,-0.673316,0.0010689828,6.1084726E-4,3.0542363E-4,0.0026389956,-0.024372108,-0.0039491653,0.26340201,0.14363237,9.80206,-29.400002,-9.150001,-45.15,walking
3464,walking,0.2656033,0.15523437,9.921839,-1.5271181E-4,6.1084726E-4,3.0542363E-4,-29.625002,-9.375,-45.15,103.86736,-1.5038334,-0.6733205,-1.5271181E-4,6.1084726E-4,3.0542363E-4,0.007315725,0.020379141,0.022202492,0.26357487,0.14425544,9.802046,-29.625002,-9.375,-45.15,walking
3483,walking,0.2632105,0.12412767,9.962517,-1.5271181E-4,6.1084726E-4,3.0542363E-4,-29.85,-9.3,-45.300003,103.86739,-1.5038334,-0.6733223,-1.5271181E-4,6.1084726E-4,3.0542363E-4,-0.0062591136,-0.022720061,0.008255005,0.26332366,0.14359972,9.802063,-29.85,-9.3,-45.300003,walking
3502,walking,0.25603202,0.17437695,9.945767,-1.5271181E-4,-6.1084726E-4,3.0542363E-4,-29.85,-9.450001,-45.45,103.867455,-1.5038341,-0.67332524,-1.5271181E-4,-6.1084726E-4,3.0542363E-4,-0.0014914572,0.010638654,0.004504204,0.26327753,0.14393467,9.802059,-29.85,-9.450001,-45.45,walking
3521,walking,0.26799613,0.14327025,9.940982,0.0010689828,-6.1084726E-4,3.0542363E-4,-29.85,-9.450001,-45.675003,103.86751,-1.5038346,-0.6733293,0.0010689828,-6.1084726E-4,3.0542363E-4,-0.0033629239,0.009825468,-0.022218704,0.26331064,0.1441941,9.802054,-29.85,-9.450001,-45.675003,walking
3540,walking,0.27756742,0.17198412,9.94816,0.0010689828,6.1084726E-4,-9.162709E-4,-29.7,-9.6,-45.675003,103.86758,-1.5038351,-0.67333263,0.0010689828,6.1084726E-4,-9.162709E-4,-0.004693687,-0.021168537,0.011437416,0.26328376,0.14362453,9.802062,-29.7,-9.6,-45.675003,walking
3559,walking,0.27517462,0.15523437,9.938589,-1.5271181E-4,-6.1084726E-4,3.0542363E-4,-29.7,-9.450001,-45.75,103.86763,-1.5038357,-0.67333597,-1.5271181E-4,-6.1084726E-4,3.0542363E-4,0.007118553,0.0075771958,-0.005212784,0.2633355,0.14409702,9.802054,-29.7,-9.450001,-45.75,walking
3578,walking,0.26799613,0.11694921,9.945767,-0.0013744063,6.1084726E-4,3.0542363E-4,-29.7,-9.150001,-45.45,103.86768,-1.5038368,-0.67333966,-0.0013744063,6.1084726E-4,3.0542363E-4,9.4273686E-4,-0.023363605,0.001537323,0.26370963,0.14360204,9.802052,-29.7,-9.150001,-45.45,walking
3597,walking,0.26081768,0.16719848,9.936196,0.0010689828,6.1084726E-4,3.0542363E-4,-30.150002,-9.075001,-45.45,103.86775,-1.5038371,-0.67334205,0.0010689828,6.1084726E-4,3.0542363E-4,-0.008795172,0.005646378,-0.005244255,0.26339236,0.14362381,9.80206,-30.150002,-9.075001,-45.45,walking
3616,walking,0.27038896,0.14566308,9.950553,-1.5271181E-4,6.1084726E-4,3.0542363E-4,-30.150002,-8.85,-45.300003,103.867805,-1.5038373,-0.67334574,-1.5271181E-4,6.1084726E-4,3.0542363E-4,-0.0049395263,0.01459761,0.0114917755,0.26316684,0.14413792,9.802059,-30.150002,-8.85,-45.300003,walking
3636,walking,0.2727818,0.14327025,9.945767,-1.5271181E-4,6.1084726E-4,-9.162709E-4,-30.45,-8.85,-45.15,103.86787,-1.5038365,-0.6733499,-1.5271181E-4,6.1084726E-4,-9.162709E-4,9.6291304E-4,-0.006453201,0.0014791489,0.26311404,0.14411731,9.80206,-30.45,-8.85,-45.15,walking
3655,walking,0.27756742,0.16002001,9.943375,-1.5271181E-4,6.1084726E-4,3.0542363E-4,-30.375002,-8.85,-45.300003,103.86796,-1.5038369,-0.6733549,-1.5271181E-4,6.1084726E-4,3.0542363E-4,9.6291304E-4,-0.006453201,0.0014791489,0.26305243,0.14391255,9.802065,-30.375002,-8.85,-45.300003,walking
3673,walking,0.2632105,0.13848461,9.950553,-1.5271181E-4,-6.1084726E-4,3.0542363E-4,-30.075,-8.85,-45.300003,103.868004,-1.503837,-0.673358,-1.5271181E-4,-6.1084726E-4,3.0542363E-4,-0.0029527247,-0.006138101,0.0023145676,0.26328173,0.1440583,9.802057,-30.075,-8.85,-45.300003,walking
3693,walking,0.26799613,0.14566308,9.945767,0.0010689828,-6.1084726E-4,-9.162709E-4,-29.475,-9.0,-44.850002,103.86804,-1.5038368,-0.6733594,0.0010689828,-6.1084726E-4,-9.162709E-4,-0.009598821,-0.0016673058,-0.008262634,0.26304883,0.14417598,9.802061,-29.475,-9.0,-44.850002,walking
3713,walking,0.27996024,0.16002001,9.9553385,-1.5271181E-4,6.1084726E-4,-9.162709E-4,-29.325,-9.150001,-45.075,103.868126,-1.5038371,-0.6733644,-1.5271181E-4,6.1084726E-4,-9.162709E-4,1.12622976E-4,0.004276857,0.012212753,0.2631046,0.14440475,9.802056,-29.325,-9.150001,-45.075,walking
3731,walking,0.24885355,0.14327025,9.940982,-1.5271181E-4,6.1084726E-4,3.0542363E-4,-29.1,-9.375,-44.850002,103.86819,-1.5038378,-0.6733679,-1.5271181E-4,6.1084726E-4,3.0542363E-4,0.0064870417,0.0026823133,0.010386467,0.263188,0.14443837,9.802053,-29.1,-9.375,-44.850002,walking
3750,walking,0.27038896,0.15523437,9.950553,0.0010689828,-6.1084726E-4,-9.162709E-4,-29.175001,-9.450001,-44.850002,103.86822,-1.5038378,-0.67336935,0.0010689828,-6.1084726E-4,-9.162709E-4,0.0035556257,0.0103290975,0.0010089874,0.2628853,0.14421293,9.802065,-29.175001,-9.450001,-44.850002,walking
3769,walking,0.27756742,0.1480559,9.957731,0.0010689828,-6.1084726E-4,3.0542363E-4,-29.400002,-9.6,-45.15,103.86828,-1.5038385,-0.6733733,0.0010689828,-6.1084726E-4,3.0542363E-4,0.009887636,0.0020507127,0.00927639,0.2633911,0.14486128,9.802041,-29.400002,-9.6,-45.15,walking
3788,walking,0.2727818,0.13130614,9.952946,-1.5271181E-4,6.1084726E-4,3.0542363E-4,-29.325,-9.150001,-45.075,103.86834,-1.5038397,-0.67337656,-1.5271181E-4,6.1084726E-4,3.0542363E-4,0.00441736,-0.011643037,0.0027370453,0.26361632,0.14458549,9.802039,-29.325,-9.150001,-45.075,walking
3807,walking,0.2656033,0.16959131,9.952946,0.0010689828,-6.1084726E-4,3.0542363E-4,-29.550001,-9.3,-45.0,103.868385,-1.5038404,-0.6733787,0.0010689828,-6.1084726E-4,3.0542363E-4,-0.010056257,0.002340272,0.018677711,0.26330262,0.14466113,9.802048,-29.550001,-9.3,-45.0,walking
3826,walking,0.2656033,0.13609178,9.9553385,-1.5271181E-4,-6.1084726E-4,3.0542363E-4,-29.775002,-9.150001,-44.850002,103.868484,-1.5038409,-0.67338485,-1.5271181E-4,-6.1084726E-4,3.0542363E-4,6.5487623E-4,0.026544869,0.009381294,0.26342106,0.1455303,9.802031,-29.775002,-9.150001,-44.850002,walking
3846,walking,0.2536392,0.13609178,9.950553,-1.5271181E-4,6.1084726E-4,3.0542363E-4,-29.7,-9.075001,-44.850002,103.86854,-1.5038413,-0.6733888,-1.5271181E-4,6.1084726E-4,3.0542363E-4,-0.0031345785,-0.018669292,-0.007927895,0.26338133,0.14499451,9.80204,-29.7,-9.075001,-44.850002,walking
3864,walking,0.27517462,0.16480567,9.976874,-0.0013744063,6.1084726E-4,3.0542363E-4,-29.7,-9.0,-45.300003,103.868576,-1.5038414,-0.67339075,-0.0013744063,6.1084726E-4,3.0542363E-4,0.008053124,0.017300084,0.02793789,0.2631996,0.14531285,9.80204,-29.7,-9.0,-45.300003,walking
3884,walking,0.26799613,0.13609178,9.950553,-1.5271181E-4,-6.1084726E-4,3.0542363E-4,-29.7,-9.0,-45.300003,103.86863,-1.5038419,-0.67339605,-1.5271181E-4,-6.1084726E-4,3.0542363E-4,-0.0012928247,0.0021209717,0.006498337,0.26307622,0.14526913,9.802044,-29.7,-9.0,-45.300003,walking
3903,walking,0.25124636,0.12412767,9.909875,-1.5271181E-4,6.1084726E-4,3.0542363E-4,-29.550001,-8.775001,-45.375,103.86868,-1.5038424,-0.67340046,-1.5271181E-4,6.1084726E-4,3.0542363E-4,-0.009207964,-0.015003979,-0.025702477,0.26288804,0.14483945,9.802055,-29.550001,-8.775001,-45.375,walking
3922,walking,0.25842485,0.16480567,9.931411,-1.5271181E-4,-6.1084726E-4,3.0542363E-4,-29.250002,-8.25,-45.75,103.86875,-1.5038425,-0.67340404,-1.5271181E-4,-6.1084726E-4,3.0542363E-4,-0.0011604428,0.006038174,0.07702732,0.26231453,0.14548054,9.802061,-29.250002,-8.25,-45.75,walking
3941,walking,0.26799613,0.11455639,9.936196,-1.5271181E-4,6.1084726E-4,3.0542363E-4,-29.325,-8.55,-45.75,103.868805,-1.503842,-0.6734089,-1.5271181E-4,6.1084726E-4,3.0542363E-4,-0.012817204,0.02217488,0.048535347,0.26231453,0.14548054,9.802061,-29.325,-8.55,-45.75,walking
3960,walking,0.2632105,0.11694921,9.950553,-1.5271181E-4,0.0018325418,-9.162709E-4,-29.400002,-8.775001,-46.050003,103.86887,-1.5038419,-0.6734133,-1.5271181E-4,0.0018325418,-9.162709E-4,-0.0022108257,-0.027428746,0.0031061172,0.26227897,0.14492449,9.802071,-29.400002,-8.775001,-46.050003,walking
3979,walking,0.26799613,0.18873389,9.952946,0.0010689828,6.1084726E-4,-9.162709E-4,-29.7,-8.85,-45.975002,103.86892,-1.5038418,-0.6734163,0.0010689828,6.1084726E-4,-9.162709E-4,0.0027077496,0.031854525,0.014324188,0.262068,0.14503355,9.802075,-29.7,-8.85,-45.975002,walking
3998,walking,0.2632105,0.12891331,9.938589,-1.5271181E-4,-6.1084726E-4,3.0542363E-4,-30.000002,-9.3,-45.600002,103.86898,-1.5038425,-0.673421,-1.5271181E-4,-6.1084726E-4,3.0542363E-4,0.009796739,0.01116474,-0.0058259964,0.2623276,0.14542077,9.802063,-30.000002,-9.3,-45.600002,walking
4018,walking,0.2727818,0.11934203,9.974482,-1.5271181E-4,-6.1084726E-4,3.0542363E-4,-29.7,-9.150001,-45.45,103.86903,-1.5038431,-0.67342466,-1.5271181E-4,-6.1084726E-4,3.0542363E-4,-0.010760307,-0.027454436,-0.010427475,0.26213688,0.14466543,9.802078,-29.7,-9.150001,-45.45,walking
4036,walking,0.2656033,0.19591236,9.950553,0.0010689828,6.1084726E-4,-9.162709E-4,-29.7,-9.3,-44.850002,103.869125,-1.503844,-0.6734299,0.0010689828,6.1084726E-4,-9.162709E-4,0.005628139,0.03320387,-0.007855415,0.26221913,0.14495207,9.802073,-29.7,-9.3,-44.850002,walking
4056,walking,0.25842485,0.11694921,9.9553385,-1.5271181E-4,-6.1084726E-4,3.0542363E-4,-29.7,-9.150001,-45.0,103.869194,-1.5038451,-0.6734342,-1.5271181E-4,-6.1084726E-4,3.0542363E-4,0.005628139,0.03320387,-0.007855415,0.2623745,0.1459269,9.802053,-29.7,-9.150001,-45.0,walking
4074,walking,0.2536392,0.1480559,9.940982,-1.5271181E-4,-6.1084726E-4,3.0542363E-4,-29.7,-9.450001,-44.850002,103.86922,-1.5038455,-0.6734357,-1.5271181E-4,-6.1084726E-4,3.0542363E-4,-0.009149104,-0.0052485615,-0.004579544,0.26194736,0.14512347,9.802076,-29.7,-9.450001,-44.850002,walking
4094,walking,0.2727818,0.18394823,9.9553385,-1.5271181E-4,-6.1084726E-4,3.0542363E-4,-29.85,-9.3,-45.15,103.86927,-1.5038457,-0.6734395,-1.5271181E-4,-6.1084726E-4,3.0542363E-4,0.0055267215,0.034490123,0.012563705,0.2621055,0.14601393,9.802059,-29.85,-9.3,-45.15,walking
4113,walking,0.2656033,0.11216356,9.940982,-1.5271181E-4,-6.1084726E-4,3.0542363E-4,-29.7,-9.0,-45.9,103.86934,-1.5038462,-0.673444,-1.5271181E-4,-6.1084726E-4,3.0542363E-4,-0.0044621527,-0.01905097,0.0067682266,0.26213536,0.1450126,9.8020735,-29.7,-9.0,-45.9,walking
4132,walking,0.2727818,0.16241284,9.974482,-1.5271181E-4,6.1084726E-4,-9.162709E-4,-29.775002,-9.150001,-45.9,103.869385,-1.5038468,-0.67344683,-1.5271181E-4,6.1084726E-4,-9.162709E-4,0.0035145879,-0.015383169,-0.001742363,0.26228717,0.14544085,9.802063,-29.775002,-9.150001,-45.9,walking
4151,walking,0.2656033,0.13848461,9.952946,-1.5271181E-4,6.1084726E-4,3.0542363E-4,-29.7,-8.700001,-45.75,103.86945,-1.5038478,-0.6734506,-1.5271181E-4,6.1084726E-4,3.0542363E-4,0.00898537,0.017185688,0.007083893,0.26223353,0.14503764,9.802071,-29.7,-8.700001,-45.75,walking
4169,walking,0.28235307,0.13609178,9.9553385,-1.5271181E-4,6.1084726E-4,-9.162709E-4,-30.075,-8.55,-45.300003,103.869514,-1.5038487,-0.6734535,-1.5271181E-4,6.1084726E-4,-9.162709E-4,0.013598025,-0.014623418,0.0023469925,0.26270375,0.14461201,9.802064,-30.075,-8.55,-45.300003,walking
4189,walking,0.27038896,0.17676978,9.967302,-1.5271181E-4,6.1084726E-4,3.0542363E-4,-30.000002,-8.85,-44.7,103.86957,-1.5038503,-0.67345625,-1.5271181E-4,6.1084726E-4,3.0542363E-4,0.008188009,0.022520557,0.0182333,0.26282603,0.14528047,9.802052,-30.000002,-8.85,-44.7,walking
4208,walking,0.2656033,0.13130614,9.950553,-1.5271181E-4,6.1084726E-4,3.0542363E-4,-29.85,-8.85,-44.7,103.86962,-1.5038518,-0.67346066,-1.5271181E-4,6.1084726E-4,3.0542363E-4,-0.00710243,-0.022109121,-0.0025463104,0.26277205,0.14557764,9.802048,-29.85,-8.85,-44.7,walking
4228,walking,0.2656033,0.13130614,9.952946,0.0010689828,6.1084726E-4,3.0542363E-4,-29.85,-9.375,-44.775,103.86969,-1.5038525,-0.67346406,0.0010689828,6.1084726E-4,3.0542363E-4,0.0019063354,0.0077907145,0.0070819855,0.26249883,0.1449471,9.802065,-29.85,-9.375,-44.775,walking
4246,walking,0.27517462,0.1480559,9.943375,0.0010689828,6.1084726E-4,3.0542363E-4,-29.325,-9.900001,-44.850002,103.869774,-1.5038536,-0.67346895,0.0010689828,6.1084726E-4,3.0542363E-4,0.0019063354,0.0077907145,0.0070819855,0.26246127,0.14531092,9.80206,-29.325,-9.900001,-44.850002,walking
4266,walking,0.25603202,0.11694921,9.960124,-1.5271181E-4,-6.1084726E-4,3.0542363E-4,-29.550001,-9.75,-44.7,103.869835,-1.5038543,-0.6734723,-1.5271181E-4,-6.1084726E-4,3.0542363E-4,-0.008664519,-0.02767983,0.007382393,0.2625277,0.14527902,9.802059,-29.550001,-9.75,-44.7,walking
4285,walking,0.2727818,0.17437695,9.962517,-1.5271181E-4,6.1084726E-4,3.0542363E-4,-29.775002,-10.05,-44.550003,103.86987,-1.5038549,-0.6734732,-1.5271181E-4,6.1084726E-4,3.0542363E-4,-0.0030483007,-0.007638946,-0.0022659302,0.26236346,0.14503874,9.802067,-29.775002,-10.05,-44.550003,walking
4304,walking,0.26081768,0.15044872,9.960124,0.0010689828,6.1084726E-4,3.0542363E-4,-29.775002,-9.75,-44.850002,103.86995,-1.5038552,-0.67347836,0.0010689828,6.1084726E-4,3.0542363E-4,0.0033714771,0.02030924,0.010430336,0.2623608,0.14560156,9.802059,-29.775002,-9.75,-44.850002,walking
4353,walking,0.27996024,0.13609178,9.96491,-1.5271181E-4,6.1084726E-4,3.0542363E-4,-29.775002,-9.375,-45.0,103.86998,-1.5038556,-0.6734801,-1.5271181E-4,6.1084726E-4,3.0542363E-4,0.012286395,-0.010502338,0.012809753,0.26259923,0.14528939,9.802057,-29.775002,-9.375,-45.0,walking
4377,walking,0.2727818,0.14566308,9.952946,0.0010689828,6.1084726E-4,3.0542363E-4,-29.250002,-8.85,-45.375,103.870094,-1.503856,-0.673486,0.0010689828,6.1084726E-4,3.0542363E-4,-0.0051563084,-0.008361429,0.01312542,0.26234066,0.14510675,9.802067,-29.250002,-8.85,-45.375,walking
4400,walking,0.2632105,0.1480559,9.96491,-1.5271181E-4,-6.1084726E-4,-9.162709E-4,-28.800001,-9.150001,-45.075,103.87021,-1.5038569,-0.67349243,-1.5271181E-4,-6.1084726E-4,-9.162709E-4,0.004726708,0.007729858,0.0010690689,0.2625748,0.14531974,9.802057,-28.800001,-9.150001,-45.075,walking
4417,walking,0.27038896,0.12891331,9.96491,-1.5271181E-4,0.0018325418,3.0542363E-4,-29.1,-9.150001,-45.15,103.87027,-1.5038573,-0.6734966,-1.5271181E-4,0.0018325418,3.0542363E-4,-0.0033121705,3.8132071E-4,0.012084961,0.2625818,0.14548677,9.802054,-29.1,-9.150001,-45.15,walking
4437,walking,0.27996024,0.14566308,9.969695,-1.5271181E-4,-6.1084726E-4,3.0542363E-4,-29.400002,-8.85,-44.775,103.870316,-1.5038581,-0.6734991,-1.5271181E-4,-6.1084726E-4,3.0542363E-4,0.0031499863,-0.013702825,0.0094947815,0.26278514,0.14510548,9.802055,-29.400002,-8.85,-44.775,walking
4456,walking,0.25842485,0.13369897,9.960124,0.0010689828,6.1084726E-4,3.0542363E-4,-29.7,-9.075001,-45.15,103.870415,-1.5038596,-0.673504,0.0010689828,6.1084726E-4,3.0542363E-4,0.008987516,5.0008297E-5,0.016163826,0.26278514,0.14510548,9.802055,-29.7,-9.075001,-45.15,walking
4476,walking,0.2632105,0.13609178,9.962517,-1.5271181E-4,-6.1084726E-4,3.0542363E-4,-29.85,-9.150001,-44.850002,103.870476,-1.5038598,-0.6735062,-1.5271181E-4,-6.1084726E-4,3.0542363E-4,-0.0047495365,-0.012134135,0.008011818,0.26258424,0.14532061,9.802056,-29.85,-9.150001,-44.850002,walking
4495,walking,0.27038896,0.16241284,9.962517,0.0010689828,6.1084726E-4,3.0542363E-4,-29.85,-8.85,-45.300003,103.870514,-1.5038599,-0.6735073,0.0010689828,6.1084726E-4,3.0542363E-4,-0.0046086907,-0.0069078505,0.0021848679,0.2623747,0.14517167,9.802065,-29.85,-8.85,-45.300003,walking
4514,walking,0.27038896,0.16002001,9.96491,-1.5271181E-4,6.1084726E-4,3.0542363E-4,-29.550001,-9.0,-45.15,103.87059,-1.5038604,-0.6735127,-1.5271181E-4,6.1084726E-4,3.0542363E-4,0.0038452446,0.014528379,0.008562088,0.26256582,0.14552979,9.802054,-29.550001,-9.0,-45.15,walking
4533,walking,0.27038896,0.12891331,9.94816,-1.5271181E-4,-6.1084726E-4,-9.162709E-4,-29.7,-8.85,-45.45,103.87065,-1.5038614,-0.67351574,-1.5271181E-4,-6.1084726E-4,-9.162709E-4,0.007114351,-0.01029855,0.0036697388,0.26281238,0.14521536,9.8020525,-29.7,-8.85,-45.45,walking
4552,walking,0.2632105,0.16002001,9.969695,-1.5271181E-4,6.1084726E-4,3.0542363E-4,-29.7,-8.85,-45.45,103.87072,-1.5038623,-0.67351896,-1.5271181E-4,6.1084726E-4,3.0542363E-4,0.0034707189,-0.01221779,-0.010679245,0.26293975,0.14486004,9.802054,-29.7,-8.85,-45.45,walking
4572,walking,0.28713873,0.15523437,9.96491,-1.5271181E-4,6.1084726E-4,3.0542363E-4,-29.85,-9.3,-45.375,103.870735,-1.5038624,-0.67352104,-1.5271181E-4,6.1084726E-4,3.0542363E-4,0.014490485,0.010791808,0.013007164,0.2630466,0.14557965,9.80204,-29.85,-9.3,-45.375,walking
4589,walking,0.27756742,0.13130614,9.9553385,-1.5271181E-4,6.1084726E-4,-9.162709E-4,-30.075,-9.0,-45.675003,103.8708,-1.5038636,-0.6735249,-1.5271181E-4,6.1084726E-4,-9.162709E-4,0.005046338,-0.017318368,-0.0058689117,0.2631869,0.14508198,9.802044,-30.075,-9.0,-45.675003,walking
4608,walking,0.2632105,0.15523437,9.979267,-1.5271181E-4,-6.1084726E-4,-9.162709E-4,-29.7,-9.0,-45.15,103.87085,-1.5038646,-0.67352784,-1.5271181E-4,-6.1084726E-4,-9.162709E-4,0.0018461943,0.015068188,0.03356552,0.26308218,0.14504352,9.802048,-29.7,-9.0,-45.15,walking
4627,walking,0.2656033,0.16241284,9.940982,0.0010689828,6.1084726E-4,3.0542363E-4,-29.475,-9.0,-45.15,103.87091,-1.5038649,-0.67353207,0.0010689828,6.1084726E-4,3.0542363E-4,-0.0014406741,0.007566422,-0.012757301,0.26306227,0.14555496,9.80204,-29.475,-9.0,-45.15,walking
4647,walking,0.26799613,0.13369897,9.960124,0.0010689828,6.1084726E-4,3.0542363E-4,-29.400002,-8.85,-44.775,103.87097,-1.5038654,-0.6735365,0.0010689828,6.1084726E-4,3.0542363E-4,-0.0014406741,0.007566422,-0.012757301,0.263038,0.14583251,9.802036,-29.400002,-8.85,-44.775,walking
4666,walking,0.27756742,0.17198412,9.986445,0.0010689828,-6.1084726E-4,3.0542363E-4,-29.250002,-8.85,-44.550003,103.87106,-1.5038674,-0.6735409,0.0010689828,-6.1084726E-4,3.0542363E-4,0.009237796,0.018763334,0.02415657,0.26346236,0.14597984,9.802023,-29.250002,-8.85,-44.550003,walking
4685,walking,0.2656033,0.13130614,9.957731,-1.5271181E-4,6.1084726E-4,3.0542363E-4,-29.475,-9.0,-44.475002,103.871086,-1.5038676,-0.6735426,-1.5271181E-4,6.1084726E-4,3.0542363E-4,-0.007681191,0.003254801,0.0113687515,0.26325864,0.14612332,9.802027,-29.475,-9.0,-44.475002,walking
4705,walking,0.26799613,0.13130614,9.976874,-1.5271181E-4,6.1084726E-4,3.0542363E-4,-29.7,-9.0,-44.775,103.871185,-1.5038679,-0.6735468,-1.5271181E-4,6.1084726E-4,3.0542363E-4,-0.0013036132,-0.016573727,0.005091667,0.26329353,0.14563924,9.802033,-29.7,-9.0,-44.775,walking
4724,walking,0.2632105,0.1576272,9.952946,0.0010689828,6.1084726E-4,3.0542363E-4,-29.925001,-9.075001,-44.850002,103.8712,-1.503868,-0.673548,0.0010689828,6.1084726E-4,3.0542363E-4,7.252693E-4,0.011645645,-0.0036725998,0.26323187,0.14608364,9.802029,-29.925001,-9.075001,-44.850002,walking
4742,walking,0.2632105,0.14087744,9.967302,-1.5271181E-4,6.1084726E-4,-9.162709E-4,-29.85,-9.150001,-45.15,103.87129,-1.503868,-0.6735535,-1.5271181E-4,6.1084726E-4,-9.162709E-4,-0.0064364374,0.006497845,0.0057382584,0.2630586,0.14632595,9.802029,-29.85,-9.150001,-45.15,walking
4761,walking,0.27517462,0.16480567,9.957731,-1.5271181E-4,6.1084726E-4,3.0542363E-4,-29.85,-9.075001,-45.375,103.87137,-1.5038685,-0.6735563,-1.5271181E-4,6.1084726E-4,3.0542363E-4,0.007242352,0.011628047,8.1443787E-4,0.2630652,0.14627649,9.80203,-29.85,-9.075001,-45.375,walking
4780,walking,0.25842485,0.15523437,9.979267,-1.5271181E-4,-6.1084726E-4,-9.162709E-4,-29.775002,-9.150001,-45.600002,103.87138,-1.5038687,-0.67355835,-1.5271181E-4,-6.1084726E-4,-9.162709E-4,-0.0064409375,0.013687953,0.018208504,0.26290232,0.14660323,9.802029,-29.775002,-9.150001,-45.600002,walking
4801,walking,0.2632105,0.13130614,9.952946,-1.5271181E-4,-6.1084726E-4,-9.162709E-4,-29.7,-9.075001,-45.75,103.87144,-1.5038681,-0.67356217,-1.5271181E-4,-6.1084726E-4,-9.162709E-4,-0.007895976,-0.023169272,-0.008217812,0.26295036,0.14630215,9.8020315,-29.7,-9.075001,-45.75,walking
4819,walking,0.2632105,0.16719848,9.976874,-1.5271181E-4,-6.1084726E-4,-9.162709E-4,-29.7,-8.85,-45.9,103.871506,-1.5038682,-0.67356455,-1.5271181E-4,-6.1084726E-4,-9.162709E-4,-0.007895976,-0.023169272,-0.008217812,0.2626733,0.14565079,9.80205,-29.7,-8.85,-45.9,walking
4837,walking,0.2656033,0.15523437,9.969695,0.0010689828,6.1084726E-4,3.0542363E-4,-29.625002,-8.775001,-45.975002,103.87156,-1.5038685,-0.6735674,0.0010689828,6.1084726E-4,3.0542363E-4,-0.001773119,0.0035294443,0.0059833527,0.262804,0.14601783,9.802041,-29.625002,-8.775001,-45.975002,walking
4857,walking,0.2632105,0.13848461,9.962517,0.0010689828,-6.1084726E-4,3.0542363E-4,-29.7,-8.700001,-45.675003,103.87162,-1.5038689,-0.6735714,0.0010689828,-6.1084726E-4,3.0542363E-4,-0.0035242438,-0.009445235,0.0042238235,0.26266766,0.14592406,9.802045,-29.7,-8.700001,-45.675003,walking
4876,walking,0.2656033,0.16002001,9.972089,-1.5271181E-4,6.1084726E-4,3.0542363E-4,-29.625002,-8.775001,-45.45,103.871704,-1.5038689,-0.6735766,-1.5271181E-4,6.1084726E-4,3.0542363E-4,-0.0028487742,0.009717718,0.014309883,0.262569,0.1462176,9.802043,-29.625002,-8.775001,-45.45,walking
4895,walking,0.26081768,0.15044872,9.952946,0.0010689828,6.1084726E-4,-9.162709E-4,-29.625002,-8.85,-45.45,103.871765,-1.5038685,-0.67358077,0.0010689828,6.1084726E-4,-9.162709E-4,-0.003955841,0.0035108477,0.009986877,0.26237056,0.14633203,9.802048,-29.625002,-8.85,-45.45,walking
4915,walking,0.2632105,0.13848461,9.950553,0.0010689828,-6.1084726E-4,3.0542363E-4,-29.7,-9.075001,-44.850002,103.871826,-1.5038687,-0.6735839,0.0010689828,-6.1084726E-4,3.0542363E-4,0.0012321174,-0.011818588,0.0018482208,0.2625057,0.14598228,9.80205,-29.7,-9.075001,-44.850002,walking
4933,walking,0.26081768,0.16002001,9.972089,-1.5271181E-4,-6.1084726E-4,3.0542363E-4,-29.550001,-9.150001,-45.075,103.87188,-1.503869,-0.6735874,-1.5271181E-4,-6.1084726E-4,3.0542363E-4,0.004324496,-4.2939186E-4,2.4986267E-4,0.26260495,0.14600204,9.802047,-29.550001,-9.150001,-45.075,walking
4953,walking,0.25842485,0.15044872,9.967302,-1.5271181E-4,-6.1084726E-4,3.0542363E-4,-29.400002,-9.150001,-45.15,103.87194,-1.5038689,-0.6735918,-1.5271181E-4,-6.1084726E-4,3.0542363E-4,-0.0049939454,0.010631651,0.009777069,0.26250803,0.14631274,9.802045,-29.400002,-9.150001,-45.15,walking
4972,walking,0.2656033,0.14327025,9.952946,-1.5271181E-4,-6.1084726E-4,3.0542363E-4,-29.550001,-9.150001,-45.075,103.87196,-1.5038689,-0.6735935,-1.5271181E-4,-6.1084726E-4,3.0542363E-4,-0.0024467409,-0.008185893,-0.0025491714,0.26243564,0.14612997,9.802049,-29.550001,-9.150001,-45.075,walking
4991,walking,0.27756742,0.15523437,9.969695,-1.5271181E-4,6.1084726E-4,-9.162709E-4,-29.775002,-9.150001,-45.45,103.872055,-1.5038698,-0.67359895,-1.5271181E-4,6.1084726E-4,-9.162709E-4,2.5498867E-4,0.011146441,0.007876396,0.26247478,0.14639407,9.802044,-29.775002,-9.150001,-45.45,walking
5011,walking,0.25842485,0.1480559,9.957731,-1.5271181E-4,-6.1084726E-4,3.0542363E-4,-29.775002,-9.450001,-45.600002,103.872086,-1.5038707,-0.6736007,-1.5271181E-4,-6.1084726E-4,3.0542363E-4,0.0123619735,-0.0052616596,0.0057458878,0.26272005,0.14640626,9.802037,-29.775002,-9.450001,-45.600002,walking
5029,walking,0.27756742,0.16241284,9.94816,0.0010689828,-6.1084726E-4,3.0542363E-4,-29.775002,-9.150001,-45.600002,103.87215,-1.5038712,-0.6736037,0.0010689828,-6.1084726E-4,3.0542363E-4,0.006712377,0.009855375,0.005792618,0.26272827,0.1461843,9.80204,-29.775002,-9.150001,-45.600002,walking
5048,walking,0.26799613,0.14087744,9.957731,-1.5271181E-4,-6.1084726E-4,-9.162709E-4,-29.400002,-9.150001,-45.600002,103.8722,-1.503872,-0.6736073,-1.5271181E-4,-6.1084726E-4,-9.162709E-4,8.903444E-4,-0.0074080825,-1.2588501E-4,0.2630116,0.14653155,9.802027,-29.400002,-9.150001,-45.600002,walking
5067,walking,0.2656033,0.14087744,9.96491,-1.5271181E-4,-6.1084726E-4,3.0542363E-4,-29.400002,-9.150001,-45.375,103.87226,-1.5038725,-0.6736106,-1.5271181E-4,-6.1084726E-4,3.0542363E-4,-3.798008E-4,-0.0062822253,0.008641243,0.26308933,0.14609529,9.802032,-29.400002,-9.150001,-45.375,walking
5086,walking,0.2727818,0.15044872,9.984053,-1.5271181E-4,6.1084726E-4,3.0542363E-4,-29.475,-8.85,-45.15,103.87236,-1.503873,-0.67361426,-1.5271181E-4,6.1084726E-4,3.0542363E-4,-0.002352804,-0.0014271289,0.00990963,0.26304635,0.14601775,9.802034,-29.475,-8.85,-45.15,walking
5106,walking,0.25603202,0.15284155,9.952946,0.0010689828,6.1084726E-4,3.0542363E-4,-29.475,-9.075001,-44.7,103.8724,-1.5038731,-0.6736176,0.0010689828,6.1084726E-4,3.0542363E-4,0.003979206,0.0021359026,0.020881653,0.2630521,0.14622802,9.802031,-29.475,-9.075001,-44.7,walking
5124,walking,0.2727818,0.13609178,9.979267,-1.5271181E-4,-6.1084726E-4,3.0542363E-4,-29.775002,-9.0,-44.850002,103.872444,-1.5038731,-0.67361903,-1.5271181E-4,-6.1084726E-4,3.0542363E-4,-0.0037407875,-0.00675945,-0.008850098,0.263022,0.1462059,9.802032,-29.775002,-9.0,-44.850002,walking
5144,walking,0.28235307,0.1576272,9.96491,-1.5271181E-4,-6.1084726E-4,-9.162709E-4,-29.550001,-9.075001,-44.850002,103.87252,-1.5038749,-0.6736236,-1.5271181E-4,-6.1084726E-4,-9.162709E-4,0.0043151975,-0.006914556,0.008351326,0.26324016,0.146067,9.802029,-29.550001,-9.075001,-44.850002,walking
5162,walking,0.26081768,0.15523437,9.967302,0.0010689828,6.1084726E-4,3.0542363E-4,-29.475,-9.150001,-45.075,103.87258,-1.5038763,-0.6736281,0.0010689828,6.1084726E-4,3.0542363E-4,-0.00314942,0.008104399,0.009075165,0.26358503,0.14669554,9.802009,-29.475,-9.150001,-45.075,walking
5182,walking,0.2632105,0.16480567,9.974482,-1.5271181E-4,6.1084726E-4,-9.162709E-4,-29.7,-9.375,-45.300003,103.872604,-1.5038766,-0.6736304,-1.5271181E-4,6.1084726E-4,-9.162709E-4,-0.009194255,0.0117542,0.0038032532,0.2632507,0.14697582,9.802014,-29.7,-9.375,-45.300003,walking
5201,walking,0.26081768,0.15044872,9.96491,-1.5271181E-4,6.1084726E-4,3.0542363E-4,-29.7,-9.450001,-45.375,103.87268,-1.5038768,-0.6736356,-1.5271181E-4,6.1084726E-4,3.0542363E-4,0.0074292123,-0.002793789,0.00409317,0.26352024,0.14697008,9.802008,-29.7,-9.450001,-45.375,walking
5219,walking,0.27517462,0.15284155,9.950553,0.0010689828,-6.1084726E-4,-9.162709E-4,-29.7,-9.3,-45.45,103.87272,-1.5038773,-0.67363966,0.0010689828,-6.1084726E-4,-9.162709E-4,0.009049624,0.005124569,0.0020427704,0.26352024,0.14697008,9.802008,-29.7,-9.3,-45.45,walking
5239,walking,0.2632105,0.15523437,9.988838,-1.5271181E-4,-6.1084726E-4,-9.162709E-4,-29.925001,-9.0,-45.15,103.872795,-1.5038791,-0.6736442,-1.5271181E-4,-6.1084726E-4,-9.162709E-4,0.012006849,0.010483235,0.0053567886,0.26381117,0.14735545,9.801993,-29.925001,-9.0,-45.15,walking
5257,walking,0.2656033,0.13609178,9.950553,-1.5271181E-4,-6.1084726E-4,3.0542363E-4,-29.400002,-8.85,-45.45,103.87284,-1.5038804,-0.67364824,-1.5271181E-4,-6.1084726E-4,3.0542363E-4,-0.0027719736,-0.012575418,-0.009792328,0.26385158,0.14698538,9.801998,-29.400002,-8.85,-45.45,walking
5276,walking,0.2632105,0.14566308,9.967302,0.0010689828,-6.1084726E-4,3.0542363E-4,-29.325,-8.700001,-45.300003,103.8729,-1.5038806,-0.6736517,0.0010689828,-6.1084726E-4,3.0542363E-4,-0.00481236,-0.0013842583,0.0015134811,0.26382875,0.14691241,9.801999,-29.325,-8.700001,-45.300003,walking
5297,walking,0.25603202,0.14327025,9.938589,-1.5271181E-4,6.1084726E-4,3.0542363E-4,-29.325,-8.85,-45.075,103.87296,-1.5038809,-0.6736554,-1.5271181E-4,6.1084726E-4,3.0542363E-4,9.108186E-4,0.0017286837,0.02637291,0.26390076,0.14706355,9.801995,-29.325,-8.85,-45.075,walking
5316,walking,0.26799613,0.14566308,9.94816,0.0010689828,-6.1084726E-4,3.0542363E-4,-29.325,-9.075001,-45.15,103.873055,-1.5038817,-0.67366123,0.0010689828,-6.1084726E-4,3.0542363E-4,-0.009917766,-0.0039384216,-0.019610405,0.26356408,0.14693032,9.802007,-29.325,-9.075001,-45.15,walking
5348,walking,0.26799613,0.14566308,9.94816,0.0010689828,-6.1084726E-4,3.0542363E-4,-29.325,-9.075001,-45.15,103.873055,-1.5038817,-0.67366123,0.0010689828,-6.1084726E-4,3.0542363E-4,-0.0025247335,-0.01018478,-0.0011177063,0.26356408,0.14693032,9.802007,-29.325,-9.075001,-45.15,walking
5378,walking,0.2727818,0.16719848,9.979267,-1.5271181E-4,6.1084726E-4,-9.162709E-4,-29.7,-9.150001,-45.75,103.87314,-1.5038817,-0.67366576,-1.5271181E-4,6.1084726E-4,-9.162709E-4,0.0052622557,0.017174348,0.017371178,0.26368606,0.14710896,9.802,-29.7,-9.150001,-45.75,walking
5400,walking,0.27038896,0.16480567,9.962517,-1.5271181E-4,6.1084726E-4,-9.162709E-4,-29.85,-8.55,-45.600002,103.87328,-1.503883,-0.673675,-1.5271181E-4,6.1084726E-4,-9.162709E-4,0.0029179752,0.014207289,3.671646E-4,0.26338688,0.14732164,9.802005,-29.85,-8.55,-45.600002,walking
5419,walking,0.27038896,0.14566308,9.950553,0.0010689828,6.1084726E-4,3.0542363E-4,-29.7,-8.400001,-45.15,103.87334,-1.5038841,-0.6736785,0.0010689828,6.1084726E-4,3.0542363E-4,0.0026930273,-0.004857868,0.0011606216,0.26349428,0.14727746,9.802003,-29.7,-8.400001,-45.15,walking
5439,walking,0.2632105,0.14566308,9.967302,-1.5271181E-4,6.1084726E-4,-9.162709E-4,-29.7,-8.55,-44.850002,103.8734,-1.503885,-0.67368156,-1.5271181E-4,6.1084726E-4,-9.162709E-4,0.0021323264,-0.0024018735,-0.0027656555,0.2635276,0.14737187,9.802001,-29.7,-8.55,-44.850002,walking
5459,walking,0.2632105,0.14087744,9.96491,-1.5271181E-4,6.1084726E-4,3.0542363E-4,-29.85,-8.400001,-44.4,103.87347,-1.5038853,-0.6736849,-1.5271181E-4,6.1084726E-4,3.0542363E-4,-0.0020272136,-0.0016428679,0.025974274,0.26337105,0.14729062,9.802007,-29.85,-8.400001,-44.4,walking
5477,walking,0.2656033,0.1576272,9.945767,-1.5271181E-4,6.1084726E-4,3.0542363E-4,-30.000002,-8.55,-44.550003,103.87351,-1.5038853,-0.6736885,-1.5271181E-4,6.1084726E-4,3.0542363E-4,-0.004175991,-9.0676546E-4,0.0115737915,0.2631655,0.14729361,9.8020115,-30.000002,-8.55,-44.550003,walking
5496,walking,0.26799613,0.1480559,9.988838,-1.5271181E-4,6.1084726E-4,3.0542363E-4,-30.150002,-8.775001,-44.775,103.873604,-1.5038854,-0.6736956,-1.5271181E-4,6.1084726E-4,3.0542363E-4,-0.004775524,0.007785365,-0.013447762,0.26288888,0.14738464,9.802018,-30.150002,-8.775001,-44.775,walking
5516,walking,0.27517462,0.1576272,9.952946,-1.5271181E-4,-6.1084726E-4,-9.162709E-4,-29.925001,-8.85,-44.850002,103.87367,-1.5038863,-0.67370003,-1.5271181E-4,-6.1084726E-4,-9.162709E-4,0.0077394843,0.00472641,-0.0026521683,0.26320508,0.14754109,9.802007,-29.925001,-8.85,-44.850002,walking
5535,walking,0.25842485,0.12173485,9.967302,-1.5271181E-4,6.1084726E-4,3.0542363E-4,-29.550001,-8.775001,-44.7,103.87372,-1.5038869,-0.6737034,-1.5271181E-4,6.1084726E-4,3.0542363E-4,-0.0014139116,-0.015568003,-2.965927E-4,0.2632053,0.1470866,9.802014,-29.550001,-8.775001,-44.7,walking
5554,walking,0.2656033,0.15044872,9.960124,0.0010689828,-6.1084726E-4,-9.162709E-4,-29.325,-8.775001,-44.550003,103.87376,-1.5038879,-0.6737051,0.0010689828,-6.1084726E-4,-9.162709E-4,0.0070371926,9.920299E-4,0.012783051,0.26349333,0.1470812,9.802006,-29.325,-8.775001,-44.550003,walking
5573,walking,0.26799613,0.14566308,9.950553,-1.5271181E-4,6.1084726E-4,3.0542363E-4,-29.475,-8.55,-44.550003,103.87382,-1.5038879,-0.67370844,-1.5271181E-4,6.1084726E-4,3.0542363E-4,0.0023945868,-0.009252444,-4.014969E-4,0.263276,0.14708264,9.802012,-29.475,-8.55,-44.550003,walking
5592,walking,0.26799613,0.14327025,9.96491,0.0010689828,6.1084726E-4,3.0542363E-4,-29.775002,-8.55,-44.475002,103.87387,-1.5038887,-0.6737114,0.0010689828,6.1084726E-4,3.0542363E-4,0.0023945868,-0.009252444,-4.014969E-4,0.26325718,0.14687404,9.802016,-29.775002,-8.55,-44.475002,walking
5611,walking,0.2656033,0.15044872,9.962517,-1.5271181E-4,-6.1084726E-4,-9.162709E-4,-30.000002,-8.700001,-44.25,103.87397,-1.5038902,-0.673715,-1.5271181E-4,-6.1084726E-4,-9.162709E-4,-0.001241833,-5.36263E-4,-2.2411346E-4,0.2632104,0.14680916,9.802018,-30.000002,-8.700001,-44.25,walking
5630,walking,0.26081768,0.16241284,9.976874,-1.5271181E-4,-6.1084726E-4,3.0542363E-4,-29.775002,-8.55,-44.4,103.87399,-1.5038906,-0.673717,-1.5271181E-4,-6.1084726E-4,3.0542363E-4,0.0015832782,0.011494771,0.011831284,0.2632421,0.14716044,9.8020115,-29.775002,-8.55,-44.4,walking
5649,walking,0.25603202,0.15284155,9.974482,-1.5271181E-4,-6.1084726E-4,0.0015271181,-29.7,-8.775001,-44.4,103.87405,-1.5038912,-0.6737212,-1.5271181E-4,-6.1084726E-4,0.0015271181,0.0075704157,-0.0030288547,0.0042533875,0.2635508,0.14704193,9.802006,-29.7,-8.775001,-44.4,walking
5668,walking,0.2632105,0.14566308,9.979267,0.0010689828,6.1084726E-4,3.0542363E-4,-29.400002,-8.475,-44.775,103.87411,-1.5038909,-0.6737249,0.0010689828,6.1084726E-4,3.0542363E-4,-0.011567175,-0.0038844943,0.0031671524,0.26334712,0.14689697,9.802013,-29.400002,-8.475,-44.775,walking
5687,walking,0.25842485,0.15284155,9.969695,0.0010689828,6.1084726E-4,3.0542363E-4,-29.400002,-8.55,-45.15,103.874176,-1.5038913,-0.67372817,0.0010689828,6.1084726E-4,3.0542363E-4,-0.008199483,0.004295841,0.004899025,0.26328292,0.14683302,9.802015,-29.400002,-8.55,-45.15,walking
5706,walking,0.26081768,0.15044872,9.967302,-1.5271181E-4,6.1084726E-4,3.0542363E-4,-29.475,-8.85,-45.75,103.87425,-1.5038913,-0.6737346,-1.5271181E-4,6.1084726E-4,3.0542363E-4,-0.0059257746,0.0027162135,0.0026102066,0.26294634,0.1471772,9.802019,-29.475,-8.85,-45.75,walking
5725,walking,0.28235307,0.16480567,9.988838,-1.5271181E-4,-6.1084726E-4,3.0542363E-4,-29.325,-9.075001,-45.9,103.87429,-1.5038913,-0.6737371,-1.5271181E-4,-6.1084726E-4,3.0542363E-4,-0.0038244724,-9.639561E-5,-0.0015306473,0.2628536,0.14714016,9.802022,-29.325,-9.075001,-45.9,walking
5744,walking,0.2656033,0.15044872,9.96491,-1.5271181E-4,-6.1084726E-4,-9.162709E-4,-29.400002,-9.0,-45.45,103.87437,-1.5038921,-0.67374307,-1.5271181E-4,-6.1084726E-4,-9.162709E-4,0.012096524,0.012643725,0.020225525,0.26327202,0.14743827,9.802007,-29.400002,-9.0,-45.45,walking
5764,walking,0.2656033,0.14566308,9.98166,-1.5271181E-4,-6.1084726E-4,3.0542363E-4,-29.625002,-9.375,-45.45,103.874405,-1.5038927,-0.67374504,-1.5271181E-4,-6.1084726E-4,3.0542363E-4,1.4039874E-4,-0.0016188323,0.012969971,0.2635362,0.14742653,9.802,-29.625002,-9.375,-45.45,walking
5783,walking,0.2727818,0.15284155,9.969695,-1.5271181E-4,-6.1084726E-4,3.0542363E-4,-29.400002,-9.375,-45.15,103.8745,-1.5038942,-0.67375064,-1.5271181E-4,-6.1084726E-4,3.0542363E-4,1.4039874E-4,-0.0016188323,0.012969971,0.26363847,0.14734253,9.801998,-29.400002,-9.375,-45.15,walking
5802,walking,0.25842485,0.1480559,9.967302,-1.5271181E-4,6.1084726E-4,3.0542363E-4,-29.475,-9.450001,-45.600002,103.87451,-1.5038947,-0.6737526,-1.5271181E-4,6.1084726E-4,3.0542363E-4,-0.0077438056,-0.0010434091,0.0012607574,0.2637671,0.1473247,9.801995,-29.475,-9.450001,-45.600002,walking
5821,walking,0.2632105,0.15044872,9.96491,-1.5271181E-4,-6.1084726E-4,-9.162709E-4,-29.400002,-9.450001,-45.975002,103.87457,-1.5038956,-0.6737562,-1.5271181E-4,-6.1084726E-4,-9.162709E-4,-7.094145E-4,9.406954E-4,0.0055360794,0.26376307,0.14731549,9.801995,-29.400002,-9.450001,-45.975002,walking
5840,walking,0.26799613,0.15523437,9.96491,0.0010689828,-6.1084726E-4,3.0542363E-4,-29.7,-9.0,-45.75,103.87463,-1.5038959,-0.67376006,0.0010689828,-6.1084726E-4,3.0542363E-4,-0.0031318665,6.991774E-4,-8.459091E-4,0.26363802,0.14734204,9.801998,-29.7,-9.0,-45.75,walking
5859,walking,0.2727818,0.16241284,9.967302,-1.5271181E-4,6.1084726E-4,-9.162709E-4,-29.625002,-9.075001,-45.9,103.87469,-1.5038965,-0.6737638,-1.5271181E-4,6.1084726E-4,-9.162709E-4,3.644824E-4,0.00487487,-5.455017E-4,0.2635814,0.14746262,9.801998,-29.625002,-9.075001,-45.9,walking
5878,walking,0.2632105,0.16480567,9.960124,0.0010689828,6.1084726E-4,-9.162709E-4,-29.625002,-9.075001,-45.075,103.874756,-1.5038975,-0.6737675,0.0010689828,6.1084726E-4,-9.162709E-4,0.0058510303,0.002334401,0.0010414124,0.26352403,0.14794825,9.801992,-29.625002,-9.075001,-45.075,walking
5897,walking,0.25603202,0.1480559,9.974482,-1.5271181E-4,6.1084726E-4,3.0542363E-4,-29.7,-9.075001,-45.15,103.87481,-1.5038981,-0.6737717,-1.5271181E-4,6.1084726E-4,3.0542363E-4,-0.01073873,-0.0020589381,0.008729935,0.26333642,0.14786799,9.801998,-29.7,-9.075001,-45.15,walking
5915,walking,0.2656033,0.1480559,9.957731,-1.5271181E-4,-6.1084726E-4,-9.162709E-4,-29.550001,-9.450001,-45.0,103.87489,-1.5038974,-0.673776,-1.5271181E-4,-6.1084726E-4,-9.162709E-4,-0.005572051,-0.006738052,-0.006552696,0.26310742,0.14765404,9.802008,-29.550001,-9.450001,-45.0,walking
5936,walking,0.25842485,0.13848461,9.976874,-1.5271181E-4,6.1084726E-4,3.0542363E-4,-29.550001,-9.3,-44.7,103.87496,-1.503897,-0.67377895,-1.5271181E-4,6.1084726E-4,3.0542363E-4,-0.005433321,-0.0012010932,-0.013767242,0.26302293,0.1475959,9.8020115,-29.550001,-9.3,-44.7,walking
5955,walking,0.27996024,0.14327025,9.976874,0.0010689828,-6.1084726E-4,3.0542363E-4,-29.250002,-9.075001,-44.850002,103.87501,-1.5038974,-0.673781,0.0010689828,-6.1084726E-4,3.0542363E-4,3.7276745E-4,-0.022330314,-0.0016908646,0.26295072,0.14695978,9.802022,-29.250002,-9.075001,-44.850002,walking
5974,walking,0.27996024,0.16719848,9.943375,0.0010689828,6.1084726E-4,3.0542363E-4,-29.625002,-8.700001,-45.375,103.87508,-1.503898,-0.6737848,0.0010689828,6.1084726E-4,3.0542363E-4,0.0020646155,-4.5850873E-5,0.0013942719,0.2629897,0.14699611,9.802021,-29.625002,-8.700001,-45.375,walking
5993,walking,0.26799613,0.14087744,9.991231,-1.5271181E-4,-6.1084726E-4,-9.162709E-4,-29.550001,-9.0,-45.375,103.87513,-1.5038981,-0.67378825,-1.5271181E-4,-6.1084726E-4,-9.162709E-4,3.7452579E-4,-0.008557156,0.025759697,0.26324964,0.14717479,9.8020115,-29.550001,-9.0,-45.375,walking
6012,walking,0.26799613,0.16002001,9.952946,-3.0542363E-4,-7.635591E-4,3.0542363E-4,-29.625002,-9.150001,-45.675003,103.87517,-1.5038986,-0.6737896,-3.0542363E-4,-7.635591E-4,3.0542363E-4,0.0066080093,-0.007660508,-9.508133E-4,0.2634879,0.14691445,9.802009,-29.625002,-9.150001,-45.675003,walking
6031,walking,0.25603202,0.15523437,9.967302,9.162709E-4,4.5813544E-4,3.0542363E-4,-29.775002,-9.75,-45.975002,103.87525,-1.5039,-0.67379564,9.162709E-4,4.5813544E-4,3.0542363E-4,-0.0036933422,0.008691087,-0.0070858,0.2633238,0.14729229,9.802008,-29.775002,-9.75,-45.975002,walking
6050,walking,0.2656033,0.13369897,9.976874,-3.0542363E-4,-7.635591E-4,-9.162709E-4,-29.475,-9.975,-45.75,103.87528,-1.5039,-0.6737973,-3.0542363E-4,-7.635591E-4,-9.162709E-4,0.0028423965,-0.006672308,-0.006111145,0.26326773,0.14639467,9.802023,-29.475,-9.975,-45.75,walking
6069,walking,0.26799613,0.16480567,9.972089,9.162709E-4,4.5813544E-4,3.0542363E-4,-29.400002,-9.75,-45.375,103.87533,-1.5039006,-0.6738001,9.162709E-4,4.5813544E-4,3.0542363E-4,0.0020386875,0.012960747,0.0020008087,0.26346976,0.14630134,9.802019,-29.400002,-9.75,-45.375,walking
6088,walking,0.27517462,0.14327025,9.96491,-3.0542363E-4,-7.635591E-4,3.0542363E-4,-29.550001,-9.450001,-45.45,103.8754,-1.5039017,-0.67380434,-3.0542363E-4,-7.635591E-4,3.0542363E-4,0.006224692,-0.0064781755,-2.9468536E-4,0.26345524,0.1467871,9.8020115,-29.550001,-9.450001,-45.45,walking
6107,walking,0.2632105,0.13609178,9.96491,-3.0542363E-4,4.5813544E-4,-9.162709E-4,-29.400002,-8.85,-45.300003,103.87546,-1.5039027,-0.6738079,-3.0542363E-4,4.5813544E-4,-9.162709E-4,-0.0066001117,-0.015020907,-0.0024051666,0.2635561,0.14610045,9.802019,-29.400002,-8.85,-45.300003,walking
6126,walking,0.26799613,0.15523437,9.969695,-3.0542363E-4,4.5813544E-4,3.0542363E-4,-29.475,-8.55,-45.075,103.87554,-1.5039032,-0.6738115,-3.0542363E-4,4.5813544E-4,3.0542363E-4,2.2599101E-4,-0.0032103956,0.003484726,0.26349017,0.14603828,9.802022,-29.475,-8.55,-45.075,walking
6146,walking,0.26799613,0.13609178,9.952946,-3.0542363E-4,4.5813544E-4,3.0542363E-4,-29.400002,-8.55,-45.300003,103.87557,-1.5039034,-0.67381316,-3.0542363E-4,4.5813544E-4,3.0542363E-4,0.002252847,0.004873723,0.00798893,0.2634772,0.14611213,9.802021,-29.400002,-8.55,-45.300003,walking
6164,walking,0.26799613,0.16480567,9.972089,-3.0542363E-4,-7.635591E-4,3.0542363E-4,-29.400002,-8.475,-45.15,103.87563,-1.5039036,-0.6738156,-3.0542363E-4,-7.635591E-4,3.0542363E-4,-4.2048097E-4,-0.013160795,-0.0111579895,0.26355088,0.14570779,9.802026,-29.400002,-8.475,-45.15,walking
6184,walking,0.27038896,0.16002001,9.960124,-3.0542363E-4,4.5813544E-4,3.0542363E-4,-29.550001,-8.700001,-45.375,103.87572,-1.5039054,-0.67382073,-3.0542363E-4,4.5813544E-4,3.0542363E-4,0.008069783,0.0030848384,0.008522034,0.2638019,0.14573537,9.802018,-29.550001,-8.700001,-45.375,walking
6202,walking,0.25842485,0.1265205,9.976874,-3.0542363E-4,4.5813544E-4,3.0542363E-4,-29.550001,-9.150001,-45.300003,103.87575,-1.5039058,-0.67382264,-3.0542363E-4,4.5813544E-4,3.0542363E-4,-0.009015769,-0.015676588,0.009727478,0.2636661,0.14549568,9.802025,-29.550001,-9.150001,-45.300003,walking
6222,walking,0.2727818,0.1480559,9.969695,-3.0542363E-4,4.5813544E-4,3.0542363E-4,-29.625002,-8.85,-45.15,103.87581,-1.5039059,-0.6738259,-3.0542363E-4,4.5813544E-4,3.0542363E-4,0.0047626495,-0.0022745728,-0.001789093,0.2637278,0.14538082,9.802026,-29.625002,-8.85,-45.15,walking
6241,walking,0.25603202,0.1480559,9.962517,-3.0542363E-4,4.5813544E-4,3.0542363E-4,-29.475,-9.0,-45.45,103.87589,-1.5039068,-0.6738311,-3.0542363E-4,4.5813544E-4,3.0542363E-4,4.478395E-4,0.0063725114,-0.0024557114,0.2636738,0.14549927,9.802025,-29.475,-9.0,-45.45,walking
6260,walking,0.26799613,0.1480559,9.962517,-3.0542363E-4,4.5813544E-4,3.0542363E-4,-29.475,-8.775001,-45.15,103.87592,-1.5039071,-0.6738331,-3.0542363E-4,4.5813544E-4,3.0542363E-4,0.0015818775,0.002125606,0.007095337,0.2637972,0.14550364,9.802022,-29.475,-8.775001,-45.15,walking
6279,walking,0.2727818,0.1480559,9.960124,-3.0542363E-4,4.5813544E-4,3.0542363E-4,-29.7,-8.55,-45.15,103.875984,-1.503908,-0.6738368,-3.0542363E-4,4.5813544E-4,3.0542363E-4,0.004181981,0.0018670708,-0.0032157898,0.26382712,0.1454266,9.802021,-29.7,-8.55,-45.15,walking
6297,walking,0.2632105,0.1480559,9.972089,-3.0542363E-4,4.5813544E-4,3.0542363E-4,-29.325,-8.775001,-45.075,103.87604,-1.5039091,-0.67384094,-3.0542363E-4,4.5813544E-4,3.0542363E-4,-0.0037295818,0.0015966594,0.0065898895,0.26376316,0.1455719,9.802021,-29.325,-8.775001,-45.075,walking
6316,walking,0.2632105,0.14566308,9.962517,-3.0542363E-4,4.5813544E-4,3.0542363E-4,-29.550001,-8.700001,-44.4,103.8761,-1.5039092,-0.67384446,-3.0542363E-4,4.5813544E-4,3.0542363E-4,-0.0035344958,-0.009976551,-0.0047721863,0.26360375,0.1452508,9.802031,-29.550001,-8.700001,-44.4,walking
6350,walking,0.2656033,0.15523437,9.962517,-3.0542363E-4,4.5813544E-4,3.0542363E-4,-29.550001,-8.700001,-44.4,103.8761,-1.5039092,-0.67384446,-3.0542363E-4,4.5813544E-4,3.0542363E-4,-0.0035344958,-0.009976551,-0.0047721863,0.26360375,0.1452508,9.802031,-29.550001,-8.700001,-44.4,walking
6377,walking,0.2656033,0.13609178,9.952946,-3.0542363E-4,4.5813544E-4,-9.162709E-4,-29.550001,-8.85,-44.475002,103.87624,-1.5039101,-0.6738532,-3.0542363E-4,4.5813544E-4,-9.162709E-4,-0.008424014,7.645935E-4,0.00922966,0.263164,0.14551567,9.802039,-29.550001,-8.85,-44.475002,walking
6393,walking,0.2632105,0.1480559,9.969695,-3.0542363E-4,4.5813544E-4,3.0542363E-4,-29.7,-9.150001,-44.475002,103.87637,-1.5039111,-0.67385954,-3.0542363E-4,4.5813544E-4,3.0542363E-4,-0.0029633343,-6.791949E-5,0.004125595,0.26303765,0.1452954,9.802045,-29.7,-9.150001,-44.475002,walking
6412,walking,0.2536392,0.14566308,9.967302,-3.0542363E-4,4.5813544E-4,3.0542363E-4,-29.625002,-9.3,-44.775,103.87642,-1.5039108,-0.67386335,-3.0542363E-4,4.5813544E-4,3.0542363E-4,-0.011294484,0.0040379614,0.0011539459,0.26266482,0.14526933,9.802055,-29.625002,-9.3,-44.775,walking
6432,walking,0.2656033,0.16959131,9.945767,9.162709E-4,4.5813544E-4,3.0542363E-4,-29.7,-9.3,-44.775,103.87649,-1.5039111,-0.6738676,9.162709E-4,4.5813544E-4,3.0542363E-4,4.9495697E-4,0.009126693,-0.005030632,0.26261392,0.14565463,9.802052,-29.7,-9.3,-44.775,walking
6451,walking,0.25603202,0.15523437,9.972089,-3.0542363E-4,4.5813544E-4,3.0542363E-4,-29.625002,-9.375,-44.550003,103.8765,-1.5039111,-0.67386955,-3.0542363E-4,4.5813544E-4,3.0542363E-4,-0.010338396,0.0026853532,-0.0028038025,0.26246294,0.14577152,9.802053,-29.625002,-9.375,-44.550003,walking
6469,walking,0.25842485,0.1480559,9.96491,-3.0542363E-4,-7.635591E-4,-9.162709E-4,-29.400002,-9.150001,-45.375,103.87657,-1.5039103,-0.6738736,-3.0542363E-4,-7.635591E-4,-9.162709E-4,-0.0051743686,0.00195387,2.4700165E-4,0.2621187,0.14579086,9.802062,-29.400002,-9.150001,-45.375,walking
6489,walking,0.2727818,0.14327025,9.967302,-3.0542363E-4,-7.635591E-4,-9.162709E-4,-29.325,-9.075001,-45.75,103.876625,-1.5039101,-0.6738771,-3.0542363E-4,-7.635591E-4,-9.162709E-4,0.0061537623,-0.004300624,0.002483368,0.2622003,0.14562833,9.802063,-29.325,-9.075001,-45.75,walking
6507,walking,0.2656033,0.1576272,9.969695,-3.0542363E-4,4.5813544E-4,3.0542363E-4,-28.95,-9.075001,-45.600002,103.87669,-1.5039108,-0.67388046,-3.0542363E-4,4.5813544E-4,3.0542363E-4,7.2064996E-4,0.0060777217,6.504059E-4,0.26234198,0.14573944,9.802057,-28.95,-9.075001,-45.600002,walking
6527,walking,0.2727818,0.14327025,9.957731,-3.0542363E-4,-7.635591E-4,3.0542363E-4,-29.250002,-8.85,-45.675003,103.87674,-1.5039113,-0.6738845,-3.0542363E-4,-7.635591E-4,3.0542363E-4,0.0012807846,-0.011558801,0.0049734116,0.26233208,0.14569151,9.802058,-29.250002,-8.85,-45.675003,walking
6545,walking,0.27756742,0.17198412,9.952946,9.162709E-4,4.5813544E-4,3.0542363E-4,-29.250002,-9.075001,-45.600002,103.87682,-1.5039123,-0.6738889,9.162709E-4,4.5813544E-4,3.0542363E-4,0.0012807846,-0.011558801,0.0049734116,0.2624841,0.14532894,9.80206,-29.250002,-9.075001,-45.600002,walking
6566,walking,0.2632105,0.15044872,9.96491,-3.0542363E-4,4.5813544E-4,3.0542363E-4,-29.250002,-9.0,-45.45,103.87686,-1.5039128,-0.67389065,-3.0542363E-4,4.5813544E-4,3.0542363E-4,0.008302569,0.016606703,-0.0067949295,0.26264462,0.1459164,9.802047,-29.250002,-9.0,-45.45,walking
6584,walking,0.25842485,0.13848461,9.950553,9.162709E-4,4.5813544E-4,3.0542363E-4,-29.550001,-9.375,-45.45,103.87692,-1.503914,-0.67389435,9.162709E-4,4.5813544E-4,3.0542363E-4,0.00559175,0.0021566302,0.00954628,0.26272047,0.14591637,9.802044,-29.550001,-9.375,-45.45,walking
6603,walking,0.27038896,0.15044872,9.972089,9.162709E-4,-7.635591E-4,3.0542363E-4,-29.550001,-9.375,-45.600002,103.877014,-1.5039142,-0.67389894,9.162709E-4,-7.635591E-4,3.0542363E-4,-7.131696E-5,-0.0014586449,0.0010824203,0.26262203,0.14595465,9.802047,-29.550001,-9.375,-45.600002,walking
6623,walking,0.25842485,0.13848461,9.979267,-3.0542363E-4,-7.635591E-4,-9.162709E-4,-29.7,-9.6,-45.45,103.87707,-1.5039142,-0.6739017,-3.0542363E-4,-7.635591E-4,-9.162709E-4,-0.005333841,-0.00662899,0.0012626648,0.26248094,0.14572328,9.802053,-29.7,-9.6,-45.45,walking
6642,walking,0.2656033,0.1480559,9.976874,-3.0542363E-4,-7.635591E-4,3.0542363E-4,-29.85,-9.6,-45.15,103.87712,-1.5039142,-0.6739051,-3.0542363E-4,-7.635591E-4,3.0542363E-4,9.755194E-4,0.0088279545,-0.007874489,0.26263663,0.14591007,9.802047,-29.85,-9.6,-45.15,walking
6661,walking,0.2536392,0.14327025,9.986445,-3.0542363E-4,4.5813544E-4,3.0542363E-4,-30.075,-9.450001,-45.0,103.87719,-1.5039147,-0.6739079,-3.0542363E-4,4.5813544E-4,3.0542363E-4,0.0020300448,-0.005273834,-0.016768456,0.2628252,0.14572419,9.802045,-30.075,-9.450001,-45.0,walking
6679,walking,0.27038896,0.1576272,9.974482,-3.0542363E-4,-7.635591E-4,-9.162709E-4,-29.85,-9.375,-44.850002,103.87721,-1.5039146,-0.67390984,-3.0542363E-4,-7.635591E-4,-9.162709E-4,-0.010156959,-0.002736017,0.0114851,0.26247445,0.14559385,9.802055,-29.85,-9.375,-44.850002,walking
6698,walking,0.2632105,0.14327025,9.96491,-3.0542363E-4,-7.635591E-4,-9.162709E-4,-29.7,-9.150001,-45.15,103.87727,-1.5039148,-0.6739138,-3.0542363E-4,-7.635591E-4,-9.162709E-4,-0.0041430295,-0.0048496425,0.0015192032,0.26252493,0.1457507,9.802052,-29.7,-9.150001,-45.15,walking
6718,walking,0.27038896,0.14327025,9.962517,-3.0542363E-4,4.5813544E-4,3.0542363E-4,-29.400002,-9.0,-45.375,103.877335,-1.5039153,-0.67391706,-3.0542363E-4,4.5813544E-4,3.0542363E-4,0.0020810962,-0.0046717376,-6.504059E-4,0.2627025,0.145576,9.802051,-29.400002,-9.0,-45.375,walking
6737,walking,0.27038896,0.16959131,9.962517,-3.0542363E-4,-7.635591E-4,3.0542363E-4,-29.250002,-8.85,-45.15,103.87739,-1.5039164,-0.6739201,-3.0542363E-4,-7.635591E-4,3.0542363E-4,0.015782058,0.012870252,0.014558792,0.26304904,0.14586253,9.802037,-29.250002,-8.85,-45.15,walking
6756,walking,0.2656033,0.15284155,9.96491,-3.0542363E-4,-7.635591E-4,-9.162709E-4,-29.325,-8.85,-45.45,103.87748,-1.5039188,-0.673926,-3.0542363E-4,-7.635591E-4,-9.162709E-4,-9.7608566E-4,0.003430143,-0.002412796,0.26340285,0.1458699,9.802027,-29.325,-8.85,-45.45,walking
6776,walking,0.25842485,0.14327025,9.976874,9.162709E-4,4.5813544E-4,3.0542363E-4,-29.325,-8.85,-45.15,103.87753,-1.5039195,-0.6739296,9.162709E-4,4.5813544E-4,3.0542363E-4,-9.7608566E-4,0.003430143,-0.002412796,0.263411,0.14591181,9.802027,-29.325,-8.85,-45.15,walking
6794,walking,0.27517462,0.13848461,9.960124,-3.0542363E-4,4.5813544E-4,3.0542363E-4,-29.475,-9.075001,-45.45,103.87757,-1.5039197,-0.6739312,-3.0542363E-4,4.5813544E-4,3.0542363E-4,0.007843494,-0.008482233,0.0014657974,0.26346025,0.14544642,9.8020315,-29.475,-9.075001,-45.45,walking
6813,walking,0.24885355,0.12891331,9.962517,-3.0542363E-4,4.5813544E-4,3.0542363E-4,-29.475,-9.0,-45.075,103.87766,-1.5039215,-0.67393374,-3.0542363E-4,4.5813544E-4,3.0542363E-4,-0.0054552555,-0.018352821,-0.0052719116,0.26324955,0.14489987,9.802045,-29.475,-9.0,-45.075,walking
6832,walking,0.2656033,0.15044872,9.991231,-3.0542363E-4,-7.635591E-4,3.0542363E-4,-29.475,-9.375,-45.675003,103.87769,-1.5039217,-0.673935,-3.0542363E-4,-7.635591E-4,3.0542363E-4,0.0036159754,0.001933977,0.007941246,0.26330665,0.14489456,9.802043,-29.475,-9.375,-45.675003,walking
6852,walking,0.27038896,0.15523437,9.957731,9.162709E-4,4.5813544E-4,3.0542363E-4,-29.325,-9.150001,-45.9,103.87778,-1.503924,-0.67393976,9.162709E-4,4.5813544E-4,3.0542363E-4,-5.1531196E-4,0.0021032244,0.020069122,0.2632366,0.14489338,9.802046,-29.325,-9.150001,-45.9,walking
6871,walking,0.28235307,0.14327025,9.976874,9.162709E-4,-7.635591E-4,3.0542363E-4,-29.325,-9.3,-45.600002,103.87783,-1.5039253,-0.6739431,9.162709E-4,-7.635591E-4,3.0542363E-4,0.0028313696,0.0064846426,-0.009426117,0.26325187,0.14510816,9.802043,-29.325,-9.3,-45.600002,walking
6889,walking,0.2656033,0.14327025,9.967302,-3.0542363E-4,4.5813544E-4,-9.162709E-4,-29.475,-9.150001,-45.75,103.87785,-1.5039258,-0.673945,-3.0542363E-4,4.5813544E-4,-9.162709E-4,-0.0021096766,-0.0035109818,0.0011396408,0.26367897,0.14497215,9.802032,-29.475,-9.150001,-45.75,walking
6909,walking,0.25603202,0.15284155,9.986445,9.162709E-4,4.5813544E-4,3.0542363E-4,-29.475,-9.150001,-45.15,103.877914,-1.5039259,-0.67394835,9.162709E-4,4.5813544E-4,3.0542363E-4,-0.0075592995,0.010443047,0.008398056,0.26350695,0.14530504,9.802032,-29.475,-9.150001,-45.15,walking
6928,walking,0.26799613,0.1480559,9.967302,-3.0542363E-4,-7.635591E-4,-9.162709E-4,-29.85,-9.150001,-45.15,103.87798,-1.5039259,-0.6739523,-3.0542363E-4,-7.635591E-4,-9.162709E-4,0.0088070035,-0.0061039925,0.0031251907,0.26339537,0.14545564,9.802033,-29.85,-9.150001,-45.15,walking
6947,walking,0.25603202,0.1576272,9.972089,-3.0542363E-4,4.5813544E-4,3.0542363E-4,-30.000002,-8.85,-45.15,103.87803,-1.5039265,-0.6739556,-3.0542363E-4,4.5813544E-4,3.0542363E-4,-0.007384062,0.004319221,-0.0026273727,0.2635794,0.14523607,9.8020315,-30.000002,-8.85,-45.15,walking
6966,walking,0.25842485,0.14087744,9.960124,-3.0542363E-4,-7.635591E-4,3.0542363E-4,-29.925001,-8.85,-45.0,103.8781,-1.5039265,-0.6739598,-3.0542363E-4,-7.635591E-4,3.0542363E-4,-0.007384062,0.004319221,-0.0026273727,0.26331463,0.14529933,9.802037,-29.925001,-8.85,-45.0,walking
6985,walking,0.25842485,0.14327025,9.960124,-0.0015271181,-7.635591E-4,3.0542363E-4,-29.625002,-8.85,-44.850002,103.87815,-1.5039263,-0.6739638,-0.0015271181,-7.635591E-4,3.0542363E-4,-0.008946359,-0.0044028163,-0.0060157776,0.26306343,0.14514758,9.802047,-29.625002,-8.85,-44.850002,walking
7004,walking,0.2656033,0.15044872,9.974482,-3.0542363E-4,4.5813544E-4,3.0542363E-4,-29.775002,-8.700001,-45.15,103.87821,-1.5039262,-0.6739668,-3.0542363E-4,4.5813544E-4,3.0542363E-4,0.0025843382,-0.007240936,0.003458023,0.26313615,0.1448235,9.802049,-29.775002,-8.700001,-45.15,walking
7024,walking,0.2656033,0.15284155,9.969695,-3.0542363E-4,4.5813544E-4,3.0542363E-4,-29.400002,-8.85,-45.15,103.878265,-1.5039269,-0.67397,-3.0542363E-4,4.5813544E-4,3.0542363E-4,0.005033672,-0.005808249,0.014486313,0.2631487,0.14487164,9.802049,-29.400002,-8.85,-45.15,walking
7043,walking,0.27517462,0.15523437,9.967302,-3.0542363E-4,-7.635591E-4,3.0542363E-4,-29.550001,-9.150001,-45.375,103.878334,-1.5039271,-0.67397374,-3.0542363E-4,-7.635591E-4,3.0542363E-4,0.005033672,-0.005808249,0.014486313,0.26320598,0.14465512,9.80205,-29.550001,-9.150001,-45.375,walking
7062,walking,0.26081768,0.14566308,9.967302,-3.0542363E-4,4.5813544E-4,3.0542363E-4,-29.85,-9.3,-45.600002,103.87842,-1.5039284,-0.67397946,-3.0542363E-4,4.5813544E-4,3.0542363E-4,0.0056685805,0.005562708,4.749298E-4,0.26348203,0.1447505,9.802041,-29.85,-9.3,-45.600002,walking
7081,walking,0.26081768,0.15044872,9.974482,-3.0542363E-4,4.5813544E-4,3.0542363E-4,-29.7,-9.150001,-45.45,103.87844,-1.5039287,-0.6739809,-3.0542363E-4,4.5813544E-4,3.0542363E-4,-0.0037288368,-0.002889052,4.5967102E-4,0.26306334,0.14465292,9.802053,-29.7,-9.150001,-45.45,walking
7100,walking,0.2632105,0.14327025,9.957731,-3.0542363E-4,4.5813544E-4,-9.162709E-4,-29.625002,-9.075001,-45.15,103.878494,-1.5039295,-0.6739843,-3.0542363E-4,4.5813544E-4,-9.162709E-4,0.0018850863,-0.0029978454,-0.0022974014,0.26317483,0.1446537,9.802051,-29.625002,-9.075001,-45.15,walking
7118,walking,0.2632105,0.13609178,9.974482,9.162709E-4,-7.635591E-4,3.0542363E-4,-29.550001,-9.450001,-45.375,103.87856,-1.5039295,-0.673987,9.162709E-4,-7.635591E-4,3.0542363E-4,-0.005684793,-0.010607809,0.005789757,0.26301485,0.14431661,9.80206,-29.550001,-9.450001,-45.375,walking
7138,walking,0.2656033,0.15523437,9.976874,9.162709E-4,4.5813544E-4,3.0542363E-4,-29.550001,-9.450001,-45.45,103.878624,-1.5039291,-0.6739896,9.162709E-4,4.5813544E-4,3.0542363E-4,-0.004074216,-0.003115788,0.009474754,0.26301634,0.14436053,9.802059,-29.550001,-9.450001,-45.45,walking
7157,walking,0.26081768,0.13609178,9.96491,-3.0542363E-4,-7.635591E-4,3.0542363E-4,-29.625002,-9.150001,-45.375,103.878685,-1.5039296,-0.67399305,-3.0542363E-4,-7.635591E-4,3.0542363E-4,-0.004561037,-0.007658273,2.3269653E-4,0.26294804,0.14430687,9.802062,-29.625002,-9.150001,-45.375,walking
7176,walking,0.24885355,0.1576272,9.969695,9.162709E-4,4.5813544E-4,3.0542363E-4,-29.625002,-9.150001,-45.45,103.87877,-1.5039295,-0.67399704,9.162709E-4,4.5813544E-4,3.0542363E-4,-0.004561037,-0.007658273,2.3269653E-4,0.26287547,0.1441198,9.802067,-29.625002,-9.150001,-45.45,walking
7194,walking,0.25842485,0.15044872,9.969695,-3.0542363E-4,4.5813544E-4,3.0542363E-4,-29.7,-8.85,-45.675003,103.8788,-1.5039291,-0.673999,-3.0542363E-4,4.5813544E-4,3.0542363E-4,-0.0074917674,0.005320221,-2.89917E-4,0.26221776,0.14462268,9.802077,-29.7,-8.85,-45.675003,walking
7214,walking,0.2656033,0.14566308,9.967302,-3.0542363E-4,-7.635591E-4,3.0542363E-4,-29.625002,-8.55,-44.850002,103.87887,-1.503929,-0.6740026,-3.0542363E-4,-7.635591E-4,3.0542363E-4,-9.2843175E-4,-0.0026312172,0.0025701523,0.26220113,0.14449866,9.802079,-29.625002,-8.55,-44.850002,walking
7233,walking,0.26799613,0.16002001,9.974482,9.162709E-4,-7.635591E-4,3.0542363E-4,-29.400002,-9.075001,-45.075,103.87894,-1.5039297,-0.67400837,9.162709E-4,-7.635591E-4,3.0542363E-4,0.003421247,0.0043391436,4.0340424E-4,0.26241672,0.14457841,9.802073,-29.400002,-9.075001,-45.075,walking
7253,walking,0.27038896,0.13848461,9.967302,-3.0542363E-4,4.5813544E-4,3.0542363E-4,-29.475,-8.775001,-44.850002,103.878975,-1.5039302,-0.67401034,-3.0542363E-4,4.5813544E-4,3.0542363E-4,-5.516112E-4,0.001992315,0.004961014,0.2623751,0.14462054,9.802073,-29.475,-8.775001,-44.850002,walking
7272,walking,0.2656033,0.15284155,9.962517,-3.0542363E-4,4.5813544E-4,3.0542363E-4,-29.475,-9.075001,-44.850002,103.879074,-1.5039313,-0.67401457,-3.0542363E-4,4.5813544E-4,3.0542363E-4,9.701848E-4,-0.013436735,9.241104E-4,0.2624166,0.14420627,9.802078,-29.475,-9.075001,-44.850002,walking
7290,walking,0.27756742,0.15284155,9.969695,-3.0542363E-4,-7.635591E-4,3.0542363E-4,-29.325,-8.700001,-45.375,103.87909,-1.5039315,-0.6740164,-3.0542363E-4,-7.635591E-4,3.0542363E-4,0.008575171,0.007819653,0.0029764175,0.2627031,0.14456937,9.802065,-29.325,-8.700001,-45.375,walking
7309,walking,0.25124636,0.13130614,9.979267,-3.0542363E-4,4.5813544E-4,3.0542363E-4,-29.175001,-8.85,-45.15,103.879135,-1.5039328,-0.67402005,-3.0542363E-4,4.5813544E-4,3.0542363E-4,-0.00691694,-0.016412899,0.007590294,0.26263532,0.14407009,9.8020735,-29.175001,-8.85,-45.15,walking
7360,walking,0.27038896,0.15044872,9.96491,-3.0542363E-4,-7.635591E-4,-9.162709E-4,-29.175001,-9.0,-45.45,103.87919,-1.5039334,-0.6740214,-3.0542363E-4,-7.635591E-4,-9.162709E-4,-0.00691694,-0.016412899,0.007590294,0.2626879,0.14419891,9.802071,-29.175001,-9.0,-45.45,walking
7388,walking,0.2656033,0.1480559,9.957731,-3.0542363E-4,-7.635591E-4,3.0542363E-4,-29.400002,-9.450001,-45.375,103.879326,-1.5039343,-0.6740315,-3.0542363E-4,-7.635591E-4,3.0542363E-4,-6.80238E-4,0.0035474896,-0.008769989,0.26272014,0.14422503,9.802071,-29.400002,-9.450001,-45.375,walking
7405,walking,0.2632105,0.14566308,9.976874,-3.0542363E-4,4.5813544E-4,3.0542363E-4,-29.775002,-9.450001,-45.075,103.87944,-1.5039343,-0.67403835,-3.0542363E-4,4.5813544E-4,3.0542363E-4,-0.0016344488,0.0013256073,0.006685257,0.26272708,0.14417689,9.80207,-29.775002,-9.450001,-45.075,walking
7424,walking,0.26799613,0.1576272,9.962517,-3.0542363E-4,4.5813544E-4,3.0542363E-4,-29.550001,-9.075001,-45.375,103.87951,-1.5039347,-0.6740413,-3.0542363E-4,4.5813544E-4,3.0542363E-4,0.004639834,-0.0057423115,-0.010813713,0.26279208,0.1439722,9.802072,-29.550001,-9.075001,-45.375,walking
7443,walking,0.27517462,0.14327025,9.967302,-3.0542363E-4,-7.635591E-4,-9.162709E-4,-29.625002,-8.85,-45.300003,103.87959,-1.5039359,-0.6740471,-3.0542363E-4,-7.635591E-4,-9.162709E-4,-0.0013266206,0.008783802,0.0073871613,0.2628505,0.14432612,9.802065,-29.625002,-8.85,-45.300003,walking
7462,walking,0.25842485,0.13609178,9.976874,9.162709E-4,-7.635591E-4,3.0542363E-4,-29.625002,-8.775001,-45.300003,103.87965,-1.5039359,-0.67404985,9.162709E-4,-7.635591E-4,3.0542363E-4,0.0023926497,-0.0019977093,-5.38826E-4,0.26303634,0.1442234,9.802061,-29.625002,-8.775001,-45.300003,walking
7481,walking,0.27038896,0.16480567,9.98166,9.162709E-4,4.5813544E-4,3.0542363E-4,-29.475,-8.775001,-45.15,103.87967,-1.5039358,-0.67405117,9.162709E-4,4.5813544E-4,3.0542363E-4,-0.0017378032,6.146133E-4,0.0014390945,0.26278695,0.14424713,9.802067,-29.475,-8.775001,-45.15,walking
7500,walking,0.26081768,0.14566308,9.972089,-3.0542363E-4,-7.635591E-4,3.0542363E-4,-29.550001,-8.85,-45.375,103.87973,-1.5039362,-0.6740547,-3.0542363E-4,-7.635591E-4,3.0542363E-4,-0.0024106205,0.006674662,0.0077114105,0.26276115,0.14437172,9.802066,-29.550001,-8.85,-45.375,walking
7519,walking,0.2656033,0.1480559,9.969695,-3.0542363E-4,4.5813544E-4,3.0542363E-4,-29.400002,-9.0,-45.15,103.87979,-1.5039365,-0.6740581,-3.0542363E-4,4.5813544E-4,3.0542363E-4,-0.003735274,0.0012756884,0.0035543442,0.262882,0.14439777,9.802062,-29.400002,-9.0,-45.15,walking
7538,walking,0.2727818,0.1576272,9.979267,-3.0542363E-4,4.5813544E-4,3.0542363E-4,-29.775002,-9.150001,-45.075,103.87986,-1.5039368,-0.6740617,-3.0542363E-4,4.5813544E-4,3.0542363E-4,-0.003735274,0.0012756884,0.0035543442,0.26271102,0.14437653,9.802068,-29.775002,-9.150001,-45.075,walking
7558,walking,0.25603202,0.1480559,9.967302,-3.0542363E-4,4.5813544E-4,3.0542363E-4,-29.7,-8.85,-45.15,103.879906,-1.5039368,-0.67406553,-3.0542363E-4,4.5813544E-4,3.0542363E-4,-0.004536569,0.0048029423,0.007665634,0.26251447,0.1444506,9.802072,-29.7,-8.85,-45.15,walking
7576,walking,0.25842485,0.14087744,9.96491,-3.0542363E-4,4.5813544E-4,3.0542363E-4,-29.625002,-8.55,-45.075,103.87997,-1.5039365,-0.67406875,-3.0542363E-4,4.5813544E-4,3.0542363E-4,-0.007761121,-0.0059474856,-0.0033073425,0.2619443,0.14430816,9.80209,-29.625002,-8.55,-45.075,walking
7596,walking,0.26081768,0.15284155,9.976874,-3.0542363E-4,-7.635591E-4,3.0542363E-4,-29.775002,-8.85,-44.850002,103.88005,-1.5039364,-0.67407364,-3.0542363E-4,-7.635591E-4,3.0542363E-4,-0.005391419,0.0035950392,0.010465622,0.26184896,0.14434668,9.802091,-29.775002,-8.85,-44.850002,walking
7615,walking,0.26799613,0.15044872,9.969695,-0.0015271181,-7.635591E-4,-9.162709E-4,-29.85,-8.85,-44.850002,103.8801,-1.5039372,-0.67407745,-0.0015271181,-7.635591E-4,-9.162709E-4,0.0047401786,0.005265102,-7.8201294E-4,0.26209804,0.14437643,9.802084,-29.85,-8.85,-44.850002,walking
7634,walking,0.26799613,0.1576272,9.962517,-3.0542363E-4,-7.635591E-4,3.0542363E-4,-29.85,-8.85,-45.375,103.88013,-1.5039374,-0.67407894,-3.0542363E-4,-7.635591E-4,3.0542363E-4,0.0015583932,-0.005591482,0.007692337,0.26206794,0.14416853,9.802087,-29.85,-8.85,-45.375,walking
7653,walking,0.27517462,0.15044872,9.974482,-3.0542363E-4,4.5813544E-4,-9.162709E-4,-29.85,-9.150001,-45.675003,103.88019,-1.5039376,-0.67408293,-3.0542363E-4,4.5813544E-4,-9.162709E-4,9.986162E-4,0.0036676228,0.002863884,0.26210418,0.1443216,9.802085,-29.85,-9.150001,-45.675003,walking
7672,walking,0.2632105,0.14327025,9.974482,-3.0542363E-4,-7.635591E-4,3.0542363E-4,-30.300001,-9.450001,-45.45,103.880264,-1.5039381,-0.6740883,-3.0542363E-4,-7.635591E-4,3.0542363E-4,9.986162E-4,0.0036676228,0.002863884,0.26205936,0.1443683,9.802086,-30.300001,-9.450001,-45.45,walking
7691,walking,0.26799613,0.16002001,9.962517,-3.0542363E-4,-7.635591E-4,3.0542363E-4,-30.150002,-9.0,-44.850002,103.88033,-1.5039382,-0.6740926,-3.0542363E-4,-7.635591E-4,3.0542363E-4,6.9889426E-4,0.011732787,-0.0044698715,0.26223898,0.14449814,9.802079,-30.150002,-9.0,-44.850002,walking
7710,walking,0.27756742,0.1480559,9.984053,9.162709E-4,4.5813544E-4,3.0542363E-4,-29.550001,-9.0,-44.475002,103.88036,-1.5039387,-0.67409456,9.162709E-4,4.5813544E-4,3.0542363E-4,0.0048564076,-0.0030974597,0.008922577,0.2624871,0.14435689,9.8020735,-29.550001,-9.0,-44.475002,walking
7730,walking,0.26081768,0.14566308,9.967302,9.162709E-4,4.5813544E-4,3.0542363E-4,-29.175001,-8.700001,-44.475002,103.8804,-1.5039399,-0.67409754,9.162709E-4,4.5813544E-4,3.0542363E-4,0.009396046,-0.016435146,0.0067653656,0.26252902,0.14420705,9.802075,-29.175001,-8.700001,-44.475002,walking
7748,walking,0.2727818,0.1576272,9.972089,-3.0542363E-4,-7.635591E-4,3.0542363E-4,-28.575,-8.55,-44.550003,103.88048,-1.5039406,-0.674101,-3.0542363E-4,-7.635591E-4,3.0542363E-4,-0.0025455058,8.164644E-4,0.0030794144,0.26266953,0.14444123,9.802067,-28.575,-8.55,-44.550003,walking
7767,walking,0.2656033,0.1480559,9.962517,9.162709E-4,4.5813544E-4,3.0542363E-4,-28.575,-8.85,-45.15,103.88054,-1.5039414,-0.6741052,9.162709E-4,4.5813544E-4,3.0542363E-4,-0.0018226206,-5.470216E-4,-0.0035762787,0.26266953,0.14444123,9.802067,-28.575,-8.85,-45.15,walking
7783,walking,0.2727818,0.14327025,9.988838,9.162709E-4,4.5813544E-4,3.0542363E-4,-28.575,-8.85,-45.15,103.880585,-1.5039415,-0.6741084,9.162709E-4,4.5813544E-4,3.0542363E-4,0.0030421019,-0.0063982606,0.020885468,0.2626163,0.14452207,9.802069,-28.575,-8.85,-45.15,walking
7806,walking,0.25124636,0.17916259,9.98166,-3.0542363E-4,4.5813544E-4,3.0542363E-4,-28.95,-9.150001,-44.850002,103.88068,-1.503943,-0.67411304,-3.0542363E-4,4.5813544E-4,3.0542363E-4,-0.01016131,0.014739603,-3.0994415E-4,0.26227507,0.14486499,9.802072,-28.95,-9.150001,-44.850002,walking
7824,walking,0.24885355,0.13130614,9.984053,-0.0015271181,-7.635591E-4,3.0542363E-4,-28.95,-8.85,-44.7,103.8807,-1.5039436,-0.67411506,-0.0015271181,-7.635591E-4,3.0542363E-4,0.0024555027,0.0019390136,-0.037576675,0.2623246,0.1448537,9.802071,-28.95,-8.85,-44.7,walking
7841,walking,0.27756742,0.14327025,9.94816,9.162709E-4,4.5813544E-4,-9.162709E-4,-28.95,-8.775001,-44.850002,103.88075,-1.5039439,-0.67411816,9.162709E-4,4.5813544E-4,-9.162709E-4,-0.0181036,-0.01697971,0.017311096,0.2616411,0.14445159,9.802094,-28.95,-8.775001,-44.850002,walking
7863,walking,0.2632105,0.17437695,9.967302,9.162709E-4,0.00167983,-9.162709E-4,-29.175001,-8.85,-44.7,103.88084,-1.5039452,-0.67412394,9.162709E-4,0.00167983,-9.162709E-4,0.011128843,0.01096569,0.0093250275,0.26204836,0.14479125,9.802079,-29.175001,-8.85,-44.7,walking
7882,walking,0.2656033,0.11934203,9.979267,9.162709E-4,0.00167983,3.0542363E-4,-29.550001,-8.700001,-44.850002,103.88087,-1.5039456,-0.6741258,9.162709E-4,0.00167983,3.0542363E-4,-0.001581639,-0.02539505,-0.0010299683,0.26200566,0.14471325,9.802081,-29.550001,-8.700001,-44.850002,walking
7901,walking,0.27756742,0.19591236,9.988838,9.162709E-4,4.5813544E-4,-9.162709E-4,-29.7,-8.85,-45.0,103.88093,-1.5039457,-0.6741285,9.162709E-4,4.5813544E-4,-9.162709E-4,-0.015803546,-0.008293584,0.0058526993,0.26141298,0.14462774,9.802098,-29.7,-8.85,-45.0,walking
7920,walking,0.2847459,0.17198412,10.01516,-3.0542363E-4,-7.635591E-4,3.0542363E-4,-29.7,-9.3,-44.775,103.88098,-1.5039452,-0.6741317,-3.0542363E-4,-7.635591E-4,3.0542363E-4,0.012679368,0.043113664,0.023434639,0.26182508,0.14588101,9.802069,-29.7,-9.3,-44.775,walking
7939,walking,0.2416751,0.11216356,9.957731,-3.0542363E-4,4.5813544E-4,3.0542363E-4,-29.625002,-9.450001,-45.15,103.88104,-1.5039463,-0.6741359,-3.0542363E-4,4.5813544E-4,3.0542363E-4,0.009892374,0.0069910884,-0.03671837,0.26221523,0.14602967,9.802056,-29.625002,-9.450001,-45.15,walking
7958,walking,0.27756742,0.20548365,10.01516,-0.0015271181,-7.635591E-4,3.0542363E-4,-29.475,-9.6,-45.300003,103.88109,-1.5039468,-0.67413884,-0.0015271181,-7.635591E-4,3.0542363E-4,-0.006593466,-0.031518772,0.0013065338,0.261968,0.14512846,9.802076,-29.475,-9.6,-45.300003,walking
7977,walking,0.26799613,0.18155542,9.972089,-3.0542363E-4,-0.0019852535,-9.162709E-4,-29.325,-9.900001,-45.45,103.88116,-1.503947,-0.67414176,-3.0542363E-4,-0.0019852535,-9.162709E-4,0.002644688,0.03552389,0.0067625046,0.26198527,0.14613596,9.802061,-29.325,-9.900001,-45.45,walking
7996,walking,0.2632105,0.100199446,9.952946,9.162709E-4,4.5813544E-4,-9.162709E-4,-29.1,-9.6,-45.675003,103.88121,-1.5039474,-0.6741455,9.162709E-4,4.5813544E-4,-9.162709E-4,-0.0012779832,-0.034015357,-0.021549225,0.2621702,0.1451794,9.80207,-29.1,-9.6,-45.675003,walking
8016,walking,0.2656033,0.18873389,9.991231,-3.0542363E-4,4.5813544E-4,3.0542363E-4,-29.325,-9.900001,-45.45,103.881294,-1.5039479,-0.6741487,-3.0542363E-4,4.5813544E-4,3.0542363E-4,-0.00611794,-0.021516964,0.01778698,0.261923,0.144687,9.802084,-29.325,-9.900001,-45.45,walking
8035,walking,0.24885355,0.1576272,9.945767,-3.0542363E-4,4.5813544E-4,3.0542363E-4,-28.95,-9.975,-45.45,103.88134,-1.5039481,-0.6741521,-3.0542363E-4,4.5813544E-4,3.0542363E-4,0.018719524,0.057748392,0.018672943,0.262345,0.14618027,9.802051,-28.95,-9.975,-45.45,walking
8054,walking,0.27517462,0.09302098,9.952946,-3.0542363E-4,-7.635591E-4,3.0542363E-4,-29.1,-9.75,-45.375,103.881424,-1.5039479,-0.6741547,-3.0542363E-4,-7.635591E-4,3.0542363E-4,-0.0146745145,-0.023312807,-0.002984047,0.2619978,0.14550266,9.802071,-29.1,-9.75,-45.375,walking
8073,walking,0.25124636,0.19351953,9.94816,0.0010689828,0.00167983,0.0,-29.550001,-9.675,-45.45,103.88146,-1.5039482,-0.67415774,0.0010689828,0.00167983,0.0,-0.013593733,0.043223023,-0.018710136,0.26170555,0.14580895,9.8020735,-29.550001,-9.675,-45.45,walking
8093,walking,0.2727818,0.10977074,9.974482,-1.5271181E-4,-7.635591E-4,0.0,-29.625002,-9.450001,-45.675003,103.88149,-1.5039485,-0.6741598,-1.5271181E-4,-7.635591E-4,0.0,-0.0067082345,-6.569326E-4,0.003027916,0.26163948,0.14582893,9.802074,-29.625002,-9.450001,-45.675003,walking
8112,walking,0.25842485,0.12173485,9.967302,0.0010689828,4.5813544E-4,0.0,-29.625002,-9.3,-45.600002,103.881546,-1.5039482,-0.6741646,0.0010689828,4.5813544E-4,0.0,0.0023202896,-0.0340126,0.002439499,0.2616843,0.14501272,9.802085,-29.625002,-9.3,-45.600002,walking
8130,walking,0.28235307,0.18155542,9.969695,-1.5271181E-4,4.5813544E-4,0.0,-29.475,-9.375,-45.300003,103.881615,-1.5039487,-0.67416847,-1.5271181E-4,4.5813544E-4,0.0,0.0048297346,0.02189663,0.015153885,0.2619055,0.1455991,9.802071,-29.475,-9.375,-45.300003,walking
8149,walking,0.2536392,0.13609178,9.974482,0.0010689828,-7.635591E-4,0.0,-29.400002,-9.3,-45.15,103.88166,-1.5039492,-0.6741736,0.0010689828,-7.635591E-4,0.0,-0.0071338713,-0.015411511,0.0032758713,0.26207578,0.14615045,9.802057,-29.400002,-9.3,-45.15,walking
8168,walking,0.26799613,0.14566308,9.974482,0.0010689828,-7.635591E-4,-0.0012216945,-29.325,-9.150001,-45.15,103.881714,-1.5039492,-0.674178,0.0010689828,-7.635591E-4,-0.0012216945,0.0013851821,-0.0024243593,0.004006386,0.2619973,0.14583096,9.802064,-29.325,-9.150001,-45.15,walking
8188,walking,0.27038896,0.1576272,9.969695,-1.5271181E-4,-7.635591E-4,0.0,-29.250002,-9.075001,-45.300003,103.88177,-1.5039496,-0.6741812,-1.5271181E-4,-7.635591E-4,0.0,0.00169909,0.012579203,0.0013799667,0.2620501,0.14629568,9.802056,-29.250002,-9.075001,-45.300003,walking
8206,walking,0.25124636,0.13130614,9.976874,-1.5271181E-4,-7.635591E-4,0.0,-29.250002,-8.85,-45.375,103.88183,-1.5039506,-0.6741856,-1.5271181E-4,-7.635591E-4,0.0,-0.009013832,-0.009577706,0.013545036,0.2619135,0.14600213,9.802065,-29.250002,-8.85,-45.375,walking
8227,walking,0.26081768,0.17198412,9.988838,-1.5271181E-4,-7.635591E-4,0.0,-29.400002,-8.85,-45.75,103.8819,-1.5039502,-0.67418885,-1.5271181E-4,-7.635591E-4,0.0,-0.005182743,-0.0071599334,-0.0109939575,0.26189873,0.1457816,9.802069,-29.400002,-8.85,-45.75,walking
8245,walking,0.2632105,0.1480559,9.98166,0.0010689828,4.5813544E-4,-0.0012216945,-29.325,-9.075001,-45.45,103.881966,-1.5039502,-0.67419386,0.0010689828,4.5813544E-4,-0.0012216945,-0.0034940839,0.015942827,0.00662899,0.2619144,0.14617978,9.802062,-29.325,-9.075001,-45.45,walking
8264,walking,0.25842485,0.16480567,9.938589,-1.5271181E-4,-7.635591E-4,-0.0012216945,-29.250002,-9.150001,-45.675003,103.881996,-1.5039507,-0.6741956,-1.5271181E-4,-7.635591E-4,-0.0012216945,0.0015779734,-0.0034315735,0.006893158,0.26195005,0.1461733,9.802061,-29.250002,-9.150001,-45.675003,walking
8283,walking,0.27756742,0.16241284,9.976874,-1.5271181E-4,-7.635591E-4,-0.0012216945,-29.400002,-9.375,-45.75,103.882065,-1.5039507,-0.67419857,-1.5271181E-4,-7.635591E-4,-0.0012216945,0.0062104166,0.014366746,-0.0032205582,0.26214594,0.14617914,9.802056,-29.400002,-9.375,-45.75,walking
8302,walking,0.24885355,0.1265205,9.976874,0.0010689828,4.5813544E-4,0.0,-29.475,-9.75,-45.75,103.88211,-1.5039515,-0.674202,0.0010689828,4.5813544E-4,0.0,-0.005227357,-0.0134806335,0.022255898,0.26202282,0.145778,9.802065,-29.475,-9.75,-45.75,walking
8321,walking,0.29910284,0.16241284,9.962517,0.0010689828,4.5813544E-4,0.0,-29.7,-9.675,-45.975002,103.88218,-1.5039513,-0.67420447,0.0010689828,4.5813544E-4,0.0,-0.005784154,-0.011431351,-0.022985458,0.26182854,0.14561923,9.802073,-29.7,-9.675,-45.975002,walking
8369,walking,0.29910284,0.16241284,9.962517,0.0010689828,4.5813544E-4,0.0,-29.775002,-9.450001,-46.050003,103.88218,-1.5039513,-0.67420447,0.0010689828,4.5813544E-4,0.0,-0.005784154,-0.011431351,-0.022985458,0.26182854,0.14561923,9.802073,-29.775002,-9.450001,-46.050003,walking
8399,walking,0.28235307,0.17437695,9.991231,-1.5271181E-4,-7.635591E-4,0.0,-29.85,-9.150001,-45.9,103.88233,-1.5039518,-0.6742138,-1.5271181E-4,-7.635591E-4,0.0,0.013344586,0.02226083,0.013795853,0.26228437,0.14643127,9.80205,-29.85,-9.150001,-45.9,walking
8416,walking,0.2632105,0.17198412,9.9553385,-1.5271181E-4,-7.635591E-4,0.0,-29.85,-9.675,-45.45,103.882454,-1.5039539,-0.67422026,-1.5271181E-4,-7.635591E-4,0.0,-0.004720539,-0.004950732,-0.0044546127,0.2623328,0.14607382,9.8020525,-29.85,-9.675,-45.45,walking
8436,walking,0.26081768,0.16241284,9.98166,-1.5271181E-4,4.5813544E-4,0.0,-29.775002,-9.450001,-45.375,103.88254,-1.5039536,-0.6742265,-1.5271181E-4,4.5813544E-4,0.0,-0.0046976507,0.020586729,-0.010231972,0.26232782,0.14660443,9.802045,-29.775002,-9.450001,-45.375,walking
8456,walking,0.2727818,0.13848461,9.986445,-1.5271181E-4,4.5813544E-4,0.0,-29.85,-9.450001,-45.300003,103.88258,-1.5039543,-0.6742305,-1.5271181E-4,4.5813544E-4,0.0,-0.002197504,0.008101657,0.003206253,0.2622902,0.14688793,9.802041,-29.85,-9.450001,-45.300003,walking
8474,walking,0.26081768,0.17437695,9.984053,-1.5271181E-4,4.5813544E-4,0.0,-29.7,-9.450001,-45.45,103.88267,-1.5039542,-0.67423373,-1.5271181E-4,4.5813544E-4,0.0,-0.005693108,0.019810125,0.010210991,0.2620721,0.1470517,9.802045,-29.7,-9.450001,-45.45,walking
8493,walking,0.27038896,0.14327025,9.976874,-1.5271181E-4,-7.635591E-4,-0.0012216945,-29.7,-8.85,-45.675003,103.88268,-1.5039546,-0.6742362,-1.5271181E-4,-7.635591E-4,-0.0012216945,0.005230695,0.013937399,0.0017023087,0.26223826,0.14748621,9.802034,-29.7,-8.85,-45.675003,walking
8513,walking,0.27038896,0.13130614,9.967302,0.0010689828,-7.635591E-4,0.0,-29.550001,-8.85,-45.75,103.882774,-1.503956,-0.6742411,0.0010689828,-7.635591E-4,0.0,0.003494501,-0.009145424,0.0029764175,0.2624447,0.14725313,9.8020315,-29.550001,-8.85,-45.75,walking
8531,walking,0.2632105,0.15284155,9.98166,-1.5271181E-4,4.5813544E-4,-0.0012216945,-29.85,-9.150001,-45.675003,103.8828,-1.5039563,-0.67424285,-1.5271181E-4,4.5813544E-4,-0.0012216945,-7.2810054E-4,-0.001200825,-0.012722969,0.2623762,0.14721772,9.802033,-29.85,-9.150001,-45.675003,walking
8550,walking,0.2632105,0.1265205,9.967302,-1.5271181E-4,-7.635591E-4,0.0,-30.000002,-9.0,-45.375,103.88285,-1.5039568,-0.6742469,-1.5271181E-4,-7.635591E-4,0.0,0.0023895204,0.013940349,0.009963036,0.2624657,0.14756197,9.802027,-30.000002,-9.0,-45.375,walking
8569,walking,0.2727818,0.15523437,9.967302,-1.5271181E-4,4.5813544E-4,-0.0012216945,-30.150002,-9.3,-45.300003,103.882904,-1.5039575,-0.6742504,-1.5271181E-4,4.5813544E-4,-0.0012216945,-0.0014721453,-0.009842873,-0.002415657,0.2624514,0.14719549,9.802032,-30.150002,-9.3,-45.300003,walking
8589,walking,0.2536392,0.17198412,9.974482,-1.5271181E-4,-7.635591E-4,0.0,-30.225,-9.450001,-45.0,103.88297,-1.5039579,-0.6742534,-1.5271181E-4,-7.635591E-4,0.0,-0.0054860115,0.015284017,-2.861023E-4,0.26222602,0.1475801,9.802032,-30.225,-9.450001,-45.0,walking
